"","Subject","Word","Trial","RT","Condition","Rating","Frequency","BaseFrequency","LengthInLetters","FamilySize","NumberOfSynsets","ResponseToPrime","RTtoPrime","RTmin1","RTmin2","RTmin3","RTmin4"
"1","pp1","basaalheid",81,6.69332366826995,"heid",2.14,0,3.55534806148941,10,0,0,"correct",6.88448665204278,1267,1750,716,1025
"2","pp1","markantheid",83,6.80903930604298,"baseheid",2.73,0,5.16478597392351,11,0,0,"correct",6.55819780281227,1019,807,1267,1750
"3","pp1","ontroerdheid",89,6.50876913697168,"baseheid",3.32,0,5.54907608489522,12,0,1,"correct",6.65157187358973,566,675,660,1358
"4","pp1","contentheid",95,6.57646956904822,"heid",2.5,0,4.49980967033027,11,0,1,"correct",6.96034772910131,854,762,928,669
"5","pp1","riantheid",96,6.85751406254539,"heid",2.36,0,4.53259949315326,9,0,0,"correct",6.8265452235566,718,854,762,928
"6","pp1","tembaarheid",111,6.3491389913798,"baseheid",3.73,0,0,11,1.02667222131998,0,"incorrect",6.82437367004309,997,540,706,598
"7","pp1","onattentheid",115,6.69332366826995,"baseheid",2.73,0,1.6094379124341,12,0,0,"correct",6.84054652928869,590,655,679,572
"8","pp1","bebrildheid",130,7.16780918431644,"heid",1.41,0,3.61091791264422,11,1.35850426878838,3,"incorrect",7.44249272279444,1051,537,757,486
"9","pp1","geurloosheid",143,6.57646956904822,"baseheid",2.95,0,2.56494935746154,12,1.31050613197084,1,"correct",6.26149168432104,794,1169,1674,1277
"10","pp1","ovaalheid",157,6.98100574072173,"heid",2.23,0,5.86078622346587,9,0.526588927497426,1,"correct",6.55393340402581,927,760,766,1038
"11","pp1","erkendheid",172,6.3818160174061,"heid",4.73,0,6.5191472879404,10,0,0,"correct",6.383506634884,703,468,1169,684
"12","pp1","coulantheid",174,6.67329796776765,"heid",2.5,0,1.79175946922805,11,0,1,"correct",7.20489251020467,547,591,703,468
"13","pp1","labielheid",196,6.70808408385307,"baseheid",3.23,0,4.38202663467388,10,0.526588927497426,0,"correct",6.83195356556585,683,1044,1165,1141
"14","pp1","visrijkheid",200,6.53813982376767,"baseheid",2.18,0,3.04452243772342,11,1.72894923152569,4,"correct",6.62007320653036,818,588,596,819
"15","pp1","ondiepheid",206,6.32076829425058,"heid",2.77,0,5.66296048013595,10,1.57000245622518,1,"incorrect",6.96696713861398,660,821,1750,1556
"16","pp1","onwelheid",207,6.99759598298193,"baseheid",2,0,3.97029191355212,9,1.7855468776495,1,"correct",6.57228254269401,556,660,821,1750
"17","pp1","blusbaarheid",209,6.73578001424233,"heid",2.91,0,0,12,1.19470700912477,0,"correct",7.06390396147207,640,1094,556,660
"18","pp1","tilbaarheid",215,6.54678541076052,"baseheid",3.18,0,0,11,1.24844221891489,1,"correct",6.73340189183736,1523,633,605,598
"19","pp1","gammelheid",221,6.54534966033442,"heid",2.55,0,4.91265488573605,10,0,0,"correct",6.82437367004309,1028,1004,789,782
"20","pp1","koketheid",228,6.85329909318608,"baseheid",2,0,4.78749174278205,9,0.741275220811803,0,"correct",7.32778053842163,830,657,1018,614
"21","pp1","ludiekheid",232,6.8001700683022,"heid",2.05,0,4.14313472639153,10,0,0,"correct",7.03966034986208,777,729,1118,947
"22","pp1","banaalheid",252,6.95272864462487,"baseheid",2.64,0,5.73979291217923,10,0.526588927497426,0,"correct",6.40522845803084,798,613,724,626
"23","pp1","bezweetheid",257,6.44730586254121,"baseheid",3.36,0,4.75359019110636,11,1.37230699238395,1,"correct",6.66185474054531,1340,789,718,585
"24","pp1","beschutheid",264,6.57088296233958,"baseheid",2.95,0,4.78749174278205,11,0.526588927497426,0,"correct",6.41999492814714,1316,745,607,1334
"25","pp1","antiekheid",271,6.98007594056176,"heid",2.23,0,6.74523634948436,10,0.869739858620314,2,"correct",6.65544035036765,1208,1268,1238,734
"26","pp1","pitloosheid",309,6.69084227741856,"heid",1.86,0,0,11,1.31050613197084,4,"correct",7.14519613499717,953,1175,651,828
"27","pp1","kalkrijkheid",316,7.07496319796604,"heid",2.09,0,3.13549421592915,12,1.48187723101362,3,"correct",6.80572255341699,647,662,944,1033
"28","pp1","onbelastheid",317,6.57646956904822,"heid",2.55,0,3.17805383034795,12,1.72894923152569,6,"incorrect",7.46737106691756,1182,647,662,944
"29","pp1","beuheid",337,7.11476944836646,"heid",1.73,0,5.06890420222023,7,0,0,"correct",6.84587987526405,879,886,696,1750
"30","pp1","dementheid",343,6.48463523563525,"heid",3.23,0,3.8286413964891,10,0.741275220811803,0,"correct",6.63987583382654,575,633,647,1239
"31","pp1","royaalheid",344,6.69084227741856,"baseheid",3.36,0,6.0913098820777,10,0.526588927497426,0,"correct",6.57228254269401,655,575,633,647
"32","pp10","enormheid",79,6.17378610390194,"heid",3,0,8.42463920980563,9,0.526588927497426,0,"correct",6.24804287450843,786,594,571,904
"33","pp10","markantheid",83,6.14418563412565,"heid",2.73,0,5.16478597392351,11,0,0,"correct",6.63068338564237,629,1030,566,480
"34","pp10","ontroerdheid",89,6.08449941307517,"heid",3.32,0,5.54907608489522,12,0,1,"correct",6.16541785423142,513,394,444,649
"35","pp10","contentheid",95,6.60934924316738,"baseheid",2.5,0,4.49980967033027,11,0,1,"correct",6.61873898351722,665,568,549,535
"36","pp10","riantheid",96,6.19644412779452,"baseheid",2.36,0,4.53259949315326,9,0,0,"correct",6.52649485957079,742,665,568,549
"37","pp10","tembaarheid",111,6.44094654063292,"heid",3.73,0,0,11,1.02667222131998,0,"incorrect",6.64118216974059,535,646,654,889
"38","pp10","onattentheid",115,6.69084227741856,"heid",2.73,0,1.6094379124341,12,0,0,"correct",6.80682936039218,511,708,497,627
"39","pp10","bebrildheid",130,6.46146817635372,"baseheid",1.41,0,3.61091791264422,11,1.35850426878838,3,"incorrect",6.30809844150953,467,502,663,524
"40","pp10","aftandsheid",139,6.97914527506881,"heid",2.05,0,4.20469261939097,11,0,0,"incorrect",6.76619171466035,677,490,534,698
"41","pp10","geurloosheid",143,6.30444880242198,"heid",2.95,0,2.56494935746154,12,1.31050613197084,1,"correct",6.81454289725996,753,508,1011,1074
"42","pp10","ovaalheid",157,6.42162226780652,"baseheid",2.23,0,5.86078622346587,9,0.526588927497426,1,"incorrect",6.19031540585315,946,576,515,580
"43","pp10","erkendheid",172,6.18826412308259,"baseheid",4.73,0,6.5191472879404,10,0,0,"correct",6.29526600143965,625,625,776,809
"44","pp10","coulantheid",174,6.50279004591562,"baseheid",2.5,0,1.79175946922805,11,0,1,"correct",6.59441345974978,573,487,625,625
"45","pp10","tilbaarheid",215,6.96602418710611,"heid",3.18,0,0,11,1.24844221891489,1,"correct",6.4831073514572,659,623,1160,528
"46","pp10","gammelheid",221,6.98286275146894,"baseheid",2.55,0,4.91265488573605,10,0,0,"incorrect",6.33327962813969,468,741,821,1216
"47","pp10","pipsheid",242,6.86589107488344,"heid",1.86,0,3.3322045101752,8,0,0,"incorrect",6.3985949345352,739,625,507,636
"48","pp10","banaalheid",252,6.30444880242198,"heid",2.64,0,5.73979291217923,10,0.526588927497426,0,"correct",7.05617528410041,556,481,507,488
"49","pp10","bezweetheid",257,6.18826412308259,"heid",3.36,0,4.75359019110636,11,1.37230699238395,1,"incorrect",7.10332206252611,569,578,656,400
"50","pp10","beschutheid",264,6.50428817353665,"heid",2.95,0,4.78749174278205,11,0.526588927497426,0,"incorrect",6.15060276844628,568,600,520,447
"51","pp10","pitloosheid",309,6.19644412779452,"baseheid",1.86,0,0,11,1.31050613197084,4,"correct",6.30444880242198,684,708,635,547
"52","pp10","kortafheid",326,6.3297209055227,"heid",2.36,0,5.86929691313377,10,1.62482689233404,1,"correct",6.70196036600254,467,605,581,485
"53","pp10","dementheid",343,6.67708346124714,"baseheid",3.23,0,3.8286413964891,10,0.741275220811803,0,"correct",6.34388043412633,430,467,516,607
"54","pp10","royaalheid",344,6.50578406012823,"heid",3.36,0,6.0913098820777,10,0.526588927497426,0,"correct",6.4118182677099,794,430,467,516
"55","pp11","riantheid",68,6.40687998606931,"baseheid",2.36,0,4.53259949315326,9,0,0,"correct",6.2803958389602,624,627,750,843
"56","pp11","ovaalheid",81,6.43133108193348,"baseheid",2.23,0,5.86078622346587,9,0.526588927497426,1,"correct",6.42648845745769,613,685,544,543
"57","pp11","aftandsheid",88,7.2086003379602,"heid",2.05,0,4.20469261939097,11,0,0,"correct",7.04664727784876,615,912,1314,821
"58","pp11","tactvolheid",103,6.59304453414244,"baseheid",2.55,0,4.75359019110636,11,1.24844221891489,1,"correct",6.57786135772105,697,939,658,559
"59","pp11","tembaarheid",105,6.3919171133926,"heid",3.73,0,0,11,1.02667222131998,0,"correct",6.62007320653036,1252,730,697,939
"60","pp11","summierheid",130,6.87729607149743,"baseheid",2.14,0,5.29831736654804,11,0.526588927497426,0,"correct",6.44888939414686,673,723,705,776
"61","pp11","tilbaarheid",131,6.89467003943348,"heid",3.18,0,0,11,1.24844221891489,1,"correct",6.96413561241824,970,673,723,705
"62","pp11","pitloosheid",135,6.4085287910595,"baseheid",1.86,0,0,11,1.31050613197084,4,"correct",6.41017488196617,566,647,699,987
"63","pp11","labielheid",163,6.43454651878745,"heid",3.23,0,4.38202663467388,10,0.526588927497426,0,"correct",6.46146817635372,650,666,760,606
"64","pp11","contentheid",164,6.22059017009974,"baseheid",2.5,0,4.49980967033027,11,0,1,"correct",6.29156913955832,623,650,666,760
"65","pp11","saprijkheid",178,6.91671502035361,"heid",1.95,0,0,11,1.51630236639884,2,"incorrect",7.46737106691756,565,568,539,603
"66","pp11","dementheid",180,6.34388043412633,"baseheid",3.23,0,3.8286413964891,10,0.741275220811803,0,"correct",6.59578051396131,670,1009,565,568
"67","pp11","enormheid",181,6.58892647753352,"heid",3,0,8.42463920980563,9,0.526588927497426,0,"incorrect",7.0184017990692,569,670,1009,565
"68","pp11","royaalheid",192,6.25958146406492,"heid",3.36,0,6.0913098820777,10,0.526588927497426,0,"correct",6.33150184989369,1750,617,526,597
"69","pp11","jofelheid",196,6.31716468674728,"heid",2.64,0,3.3322045101752,9,0,0,"correct",7.13568734702814,563,560,734,523
"70","pp11","blusbaarheid",206,7.10578612948127,"baseheid",2.91,0,0,12,1.19470700912477,0,"correct",6.40025744530882,549,513,695,700
"71","pp11","basaalheid",214,6.56667242980324,"baseheid",2.14,0,3.55534806148941,10,0,0,"correct",6.40191719672719,455,583,615,922
"72","pp11","kalkrijkheid",222,6.63463335786169,"baseheid",2.09,0,3.13549421592915,12,1.48187723101362,3,"correct",6.4281052726846,607,662,657,693
"73","pp11","kortafheid",224,6.33150184989369,"heid",2.36,0,5.86929691313377,10,1.62482689233404,1,"correct",6.57368016696065,547,761,607,662
"74","pp11","ontroerdheid",243,6.47389069635227,"heid",3.32,0,5.54907608489522,12,0,1,"correct",6.54391184556479,982,866,584,599
"75","pp11","banaalheid",250,6.61338421837956,"heid",2.64,0,5.73979291217923,10,0.526588927497426,0,"correct",6.8265452235566,809,1105,592,637
"76","pp11","erkendheid",253,6.51174532964473,"baseheid",4.73,0,6.5191472879404,10,0,0,"correct",6.12029741895095,652,628,745,809
"77","pp11","coulantheid",256,6.52502965784346,"baseheid",2.5,0,1.79175946922805,11,0,1,"correct",6.21860011969173,767,527,673,652
"78","pp11","geurloosheid",261,6.25190388316589,"heid",2.95,0,2.56494935746154,12,1.31050613197084,1,"correct",6.4085287910595,830,754,1048,943
"79","pp11","ondiepheid",278,6.10702288774225,"baseheid",2.77,0,5.66296048013595,10,1.57000245622518,1,"correct",6.3297209055227,534,570,629,687
"80","pp11","onwelheid",320,6.67329796776765,"heid",2,0,3.97029191355212,9,1.7855468776495,1,"correct",7.07918439460967,574,596,584,625
"81","pp11","gammelheid",338,6.71659477352098,"baseheid",2.55,0,4.91265488573605,10,0,0,"correct",6.36475075685191,670,866,576,547
"82","pp12","ondiepheid",88,6.54391184556479,"baseheid",2.77,0,5.66296048013595,10,1.57000245622518,1,"correct",6.40687998606931,532,1150,666,804
"83","pp12","royaalheid",97,6.60934924316738,"heid",3.36,0,6.0913098820777,10,0.526588927497426,0,"correct",6.71417052990947,1138,969,1024,604
"84","pp12","antiekheid",101,6.87626461189077,"baseheid",2.23,0,6.74523634948436,10,0.869739858620314,2,"correct",6.43294009273918,551,550,762,742
"85","pp12","beschutheid",110,6.94312242281943,"heid",2.95,0,4.78749174278205,11,0.526588927497426,0,"incorrect",7.05875815251866,721,1009,640,835
"86","pp12","gammelheid",119,6.92657703322272,"baseheid",2.55,0,4.91265488573605,10,0,0,"correct",6.75460409948796,1052,762,505,651
"87","pp12","onattentheid",143,6.70563909486,"heid",2.73,0,1.6094379124341,12,0,0,"correct",6.92165818415113,738,696,587,848
"88","pp12","tembaarheid",144,6.76272950693188,"heid",3.73,0,0,11,1.02667222131998,0,"correct",7.06731984865348,817,738,696,587
"89","pp12","erkendheid",147,6.45833828334479,"baseheid",4.73,0,6.5191472879404,10,0,0,"correct",6.46146817635372,1322,631,865,817
"90","pp12","riantheid",165,6.77992190747225,"baseheid",2.36,0,4.53259949315326,9,0,0,"correct",7.0335064842877,685,980,1037,1120
"91","pp12","kortafheid",179,6.87109129461055,"heid",2.36,0,5.86929691313377,10,1.62482689233404,1,"correct",6.7428806357919,1035,521,604,614
"92","pp12","labielheid",265,6.92165818415113,"heid",3.23,0,4.38202663467388,10,0.526588927497426,0,"correct",6.84587987526405,985,1573,768,874
"93","pp12","ontroerdheid",282,6.67329796776765,"heid",3.32,0,5.54907608489522,12,0,1,"correct",6.8112443786013,851,997,742,756
"94","pp13","enormheid",79,6.81563999007433,"baseheid",3,0,8.42463920980563,9,0.526588927497426,0,"correct",6.38519439899773,605,707,1252,834
"95","pp13","markantheid",83,6.99393297522319,"baseheid",2.73,0,5.16478597392351,11,0,0,"correct",6.70196036600254,796,1091,840,912
"96","pp13","ontroerdheid",89,6.4150969591716,"baseheid",3.32,0,5.54907608489522,12,0,1,"correct",6.71538338633468,1030,660,884,799
"97","pp13","lobbigheid",92,6.85118492749374,"heid",1.82,0,0,10,0.741275220811803,3,"correct",6.67582322163485,695,704,611,1030
"98","pp13","contentheid",95,6.69579891705849,"heid",2.5,0,4.49980967033027,11,0,1,"correct",7.45182223652793,999,1211,945,695
"99","pp13","riantheid",96,6.78558764500793,"heid",2.36,0,4.53259949315326,9,0,0,"correct",6.62007320653036,809,999,1211,945
"100","pp13","tembaarheid",111,7.00033446027523,"baseheid",3.73,0,0,11,1.02667222131998,0,"correct",7.18538701558042,824,837,590,613
"101","pp13","onattentheid",115,6.67834211465433,"baseheid",2.73,0,1.6094379124341,12,0,0,"correct",6.72623340235875,762,607,586,1097
"102","pp13","bebrildheid",130,6.86380339145295,"heid",1.41,0,3.61091791264422,11,1.35850426878838,3,"incorrect",6.55677835615804,765,590,799,539
"103","pp13","geurloosheid",143,6.75343791859778,"baseheid",2.95,0,2.56494935746154,12,1.31050613197084,1,"correct",6.46146817635372,619,876,739,959
"104","pp13","erkendheid",172,7.20117088328168,"heid",4.73,0,6.5191472879404,10,0,0,"correct",6.87005341179813,697,605,1563,1001
"105","pp13","labielheid",196,6.53378883793334,"baseheid",3.23,0,4.38202663467388,10,0.526588927497426,0,"incorrect",7.46737106691756,790,814,733,552
"106","pp13","visrijkheid",200,6.83410873881384,"baseheid",2.18,0,3.04452243772342,11,1.72894923152569,4,"correct",6.42162226780652,691,1015,622,688
"107","pp13","ondiepheid",206,7.33302301438648,"heid",2.77,0,5.66296048013595,10,1.57000245622518,1,"correct",6.50578406012823,790,745,644,691
"108","pp13","onwelheid",207,6.8627579130514,"baseheid",2,0,3.97029191355212,9,1.7855468776495,1,"correct",6.66949808985788,1530,790,745,644
"109","pp13","blusbaarheid",209,7.0825485693553,"heid",2.91,0,0,12,1.19470700912477,0,"correct",7.35436233042148,595,956,1530,790
"110","pp13","tilbaarheid",215,7.03878354138854,"baseheid",3.18,0,0,11,1.24844221891489,1,"correct",6.34035930372775,991,608,975,654
"111","pp13","koketheid",228,6.85224256905188,"baseheid",2,0,4.78749174278205,9,0.741275220811803,0,"incorrect",6.63987583382654,904,948,948,599
"112","pp13","ludiekheid",232,6.72262979485545,"heid",2.05,0,4.14313472639153,10,0,0,"incorrect",6.3135480462771,729,1190,901,946
"113","pp13","pipsheid",242,6.5694814204143,"baseheid",1.86,0,3.3322045101752,8,0,0,"correct",6.53813982376767,762,904,643,609
"114","pp13","banaalheid",252,6.67834211465433,"baseheid",2.64,0,5.73979291217923,10,0.526588927497426,0,"correct",6.88243747099785,755,560,698,720
"115","pp13","bezweetheid",257,6.9027427371586,"baseheid",3.36,0,4.75359019110636,11,1.37230699238395,1,"correct",6.33327962813969,1009,682,671,588
"116","pp13","beschutheid",264,6.95368421087054,"baseheid",2.95,0,4.78749174278205,11,0.526588927497426,0,"incorrect",6.39526159811545,554,719,629,742
"117","pp13","tactvolheid",274,6.36818718635049,"heid",2.55,0,4.75359019110636,11,1.24844221891489,1,"correct",6.80128303447162,771,655,1466,560
"118","pp13","jofelheid",275,6.42162226780652,"baseheid",2.64,0,3.3322045101752,9,0,0,"correct",6.4707995037826,583,771,655,1466
"119","pp13","pitloosheid",309,6.41836493593621,"heid",1.86,0,0,11,1.31050613197084,4,"correct",6.50128967054039,702,776,606,630
"120","pp13","onbelastheid",317,6.57228254269401,"heid",2.55,0,3.17805383034795,12,1.72894923152569,6,"correct",7.07326971745971,725,451,573,501
"121","pp13","saprijkheid",333,7.10496544826984,"baseheid",1.95,0,0,11,1.51630236639884,2,"correct",7.0992017435531,572,534,706,633
"122","pp13","beuheid",337,6.79570577517351,"heid",1.73,0,5.06890420222023,7,0,0,"incorrect",6.30627528694802,1422,1361,586,1218
"123","pp13","dementheid",343,6.77308037565554,"heid",3.23,0,3.8286413964891,10,0.741275220811803,0,"incorrect",6.24416690066374,565,767,882,1057
"124","pp13","royaalheid",344,6.44730586254121,"baseheid",3.36,0,6.0913098820777,10,0.526588927497426,0,"correct",6.42162226780652,874,565,767,882
"125","pp14","riantheid",68,6.61069604471776,"heid",2.36,0,4.53259949315326,9,0,0,"incorrect",6.88448665204278,801,848,626,1049
"126","pp14","beuheid",73,6.24610676548156,"heid",1.73,0,5.06890420222023,7,0,0,"correct",7.05012252026906,816,694,732,626
"127","pp14","ovaalheid",81,6.38519439899773,"heid",2.23,0,5.86078622346587,9,0.526588927497426,1,"correct",7.00124562206948,511,952,573,595
"128","pp14","aftandsheid",88,6.31716468674728,"baseheid",2.05,0,4.20469261939097,11,0,0,"correct",6.4377516497364,560,1480,907,749
"129","pp14","beschutheid",101,6.22455842927536,"baseheid",2.95,0,4.78749174278205,11,0.526588927497426,0,"correct",6.25382881157547,948,600,620,882
"130","pp14","tactvolheid",103,6.19847871649231,"heid",2.55,0,4.75359019110636,11,1.24844221891489,1,"correct",6.69208374250663,631,505,948,600
"131","pp14","tembaarheid",105,6.21260609575152,"baseheid",3.73,0,0,11,1.02667222131998,0,"correct",6.4393503711001,773,492,631,505
"132","pp14","summierheid",130,6.61472560020376,"heid",2.14,0,5.29831736654804,11,0.526588927497426,0,"correct",6.94215670569947,615,727,597,1395
"133","pp14","tilbaarheid",131,6.88653164253051,"baseheid",3.18,0,0,11,1.24844221891489,1,"correct",6.49526555593701,746,615,727,597
"134","pp14","pitloosheid",135,6.45519856334012,"heid",1.86,0,0,11,1.31050613197084,4,"correct",6.64248680136726,1066,614,647,979
"135","pp14","labielheid",163,6.33859407820318,"baseheid",3.23,0,4.38202663467388,10,0.526588927497426,0,"correct",6.3026189757449,752,860,675,626
"136","pp14","contentheid",164,6.16961073249146,"heid",2.5,0,4.49980967033027,11,0,1,"correct",6.34212141872115,566,752,860,675
"137","pp14","dementheid",180,6.25382881157547,"heid",3.23,0,3.8286413964891,10,0.741275220811803,0,"correct",6.74758652682932,630,554,480,621
"138","pp14","enormheid",181,6.38519439899773,"baseheid",3,0,8.42463920980563,9,0.526588927497426,0,"correct",6.26530121273771,520,630,554,480
"139","pp14","bebrildheid",185,6.71052310945243,"heid",1.41,0,3.61091791264422,11,1.35850426878838,3,"incorrect",7.09672137849476,532,630,707,593
"140","pp14","royaalheid",192,6.45362499889269,"baseheid",3.36,0,6.0913098820777,10,0.526588927497426,0,"correct",6.23832462503951,468,561,663,656
"141","pp14","jofelheid",196,6.60934924316738,"baseheid",2.64,0,3.3322045101752,9,0,0,"correct",6.33505425149806,580,761,644,635
"142","pp14","blusbaarheid",206,6.49828214947643,"heid",2.91,0,0,12,1.19470700912477,0,"correct",6.62539236800796,893,464,495,438
"143","pp14","basaalheid",214,6.06842558824411,"heid",2.14,0,3.55534806148941,10,0,0,"correct",6.5424719605068,566,542,986,476
"144","pp14","kalkrijkheid",222,6.19031540585315,"heid",2.09,0,3.13549421592915,12,1.48187723101362,3,"correct",6.56103066589657,578,687,607,821
"145","pp14","kortafheid",224,6.21260609575152,"baseheid",2.36,0,5.86929691313377,10,1.62482689233404,1,"correct",6.27664348934164,600,488,578,687
"146","pp14","ontroerdheid",243,6.25958146406492,"baseheid",3.32,0,5.54907608489522,12,0,1,"correct",6.20455776256869,475,826,588,523
"147","pp14","lobbigheid",249,6.45362499889269,"heid",1.82,0,0,10,0.741275220811803,3,"incorrect",6.38856140554563,534,600,736,808
"148","pp14","banaalheid",250,6.42162226780652,"baseheid",2.64,0,5.73979291217923,10,0.526588927497426,0,"correct",6.16541785423142,635,534,600,736
"149","pp14","erkendheid",253,6.25766758788264,"heid",4.73,0,6.5191472879404,10,0,0,"correct",6.33859407820318,864,713,615,635
"150","pp14","coulantheid",256,6.33150184989369,"heid",2.5,0,1.79175946922805,11,0,1,"correct",6.5366915975913,562,613,522,864
"151","pp14","geurloosheid",261,6.60800062529609,"baseheid",2.95,0,2.56494935746154,12,1.31050613197084,1,"correct",6.35957386867238,782,586,652,461
"152","pp14","antiekheid",271,6.30078579466324,"heid",2.23,0,6.74523634948436,10,0.869739858620314,2,"correct",6.35957386867238,793,792,732,1072
"153","pp14","ludiekheid",273,6.5792512120101,"heid",2.05,0,4.14313472639153,10,0,0,"incorrect",6.33505425149806,612,545,793,792
"154","pp14","ondiepheid",278,6.17378610390194,"heid",2.77,0,5.66296048013595,10,1.57000245622518,1,"correct",6.38856140554563,452,632,601,891
"155","pp14","markantheid",279,6.2841341610708,"baseheid",2.73,0,5.16478597392351,11,0,0,"correct",6.25958146406492,480,452,632,601
"156","pp14","pipsheid",285,6.29341927884648,"baseheid",1.86,0,3.3322045101752,8,0,0,"incorrect",6.6945620585211,721,843,958,808
"157","pp14","bezweetheid",297,6.23048144757848,"baseheid",3.36,0,4.75359019110636,11,1.37230699238395,1,"correct",6.13339804299665,453,803,732,1103
"158","pp14","onbelastheid",303,6.4831073514572,"heid",2.55,0,3.17805383034795,12,1.72894923152569,6,"correct",6.88141130364254,822,651,1034,894
"159","pp14","koketheid",307,6.22653666928747,"baseheid",2,0,4.78749174278205,9,0.741275220811803,0,"correct",6.97728134163075,424,529,709,654
"160","pp14","onattentheid",310,6.37331978957701,"baseheid",2.73,0,1.6094379124341,12,0,0,"correct",6.67582322163485,700,540,506,424
"161","pp14","onwelheid",320,6.23048144757848,"baseheid",2,0,3.97029191355212,9,1.7855468776495,1,"correct",6.289715570909,444,625,657,667
"162","pp14","visrijkheid",336,6.26149168432104,"baseheid",2.18,0,3.04452243772342,11,1.72894923152569,4,"correct",6.11589212548303,568,514,560,689
"163","pp14","gammelheid",338,6.20859002609663,"heid",2.55,0,4.91265488573605,10,0,0,"correct",6.75460409948796,509,524,568,514
"164","pp15","koketheid",69,6.46458830368996,"baseheid",2,0,4.78749174278205,9,0.741275220811803,0,"correct",6.53378883793334,759,692,686,575
"165","pp15","bezweetheid",78,6.68959926917897,"baseheid",3.36,0,4.75359019110636,11,1.37230699238395,1,"correct",6.64509096950564,756,806,1085,589
"166","pp15","ondiepheid",88,6.42648845745769,"heid",2.77,0,5.66296048013595,10,1.57000245622518,1,"correct",6.35610766069589,554,621,822,799
"167","pp15","royaalheid",97,6.39526159811545,"baseheid",3.36,0,6.0913098820777,10,0.526588927497426,0,"correct",6.46925031679577,655,633,731,942
"168","pp15","antiekheid",101,6.76041469108343,"heid",2.23,0,6.74523634948436,10,0.869739858620314,2,"correct",6.63725803128446,588,704,608,599
"169","pp15","beschutheid",110,6.75460409948796,"baseheid",2.95,0,4.78749174278205,11,0.526588927497426,0,"incorrect",6.48004456192665,761,647,707,1170
"170","pp15","gammelheid",119,6.77764659363512,"heid",2.55,0,4.91265488573605,10,0,0,"correct",6.65672652417839,655,915,548,663
"171","pp15","tactvolheid",131,6.45362499889269,"heid",2.55,0,4.75359019110636,11,1.24844221891489,1,"correct",6.53233429222235,812,969,703,742
"172","pp15","onattentheid",143,6.4831073514572,"baseheid",2.73,0,1.6094379124341,12,0,0,"incorrect",6.94889722231331,839,613,626,657
"173","pp15","tembaarheid",144,6.69084227741856,"baseheid",3.73,0,0,11,1.02667222131998,0,"incorrect",6.7428806357919,654,839,613,626
"174","pp15","contentheid",146,6.53813982376767,"heid",2.5,0,4.49980967033027,11,0,1,"correct",7.0647590277918,672,805,654,839
"175","pp15","erkendheid",147,6.33682573114644,"heid",4.73,0,6.5191472879404,10,0,0,"correct",6.56103066589657,691,672,805,654
"176","pp15","riantheid",165,7.30988148582479,"heid",2.36,0,4.53259949315326,9,0,0,"correct",6.6945620585211,944,1182,1515,876
"177","pp15","beuheid",169,6.59850902861452,"heid",1.73,0,5.06890420222023,7,0,0,"correct",6.87626461189077,763,795,680,1495
"178","pp15","dementheid",173,6.52209279817015,"heid",3.23,0,3.8286413964891,10,0.741275220811803,0,"correct",6.59030104819669,605,755,729,734
"179","pp15","banaalheid",176,6.89568269774787,"baseheid",2.64,0,5.73979291217923,10,0.526588927497426,0,"correct",6.70808408385307,814,670,680,605
"180","pp15","blusbaarheid",189,6.49072353450251,"heid",2.91,0,0,12,1.19470700912477,0,"correct",7.0833878476253,821,577,605,796
"181","pp15","basaalheid",200,6.68835471394676,"heid",2.14,0,3.55534806148941,10,0,0,"incorrect",6.37842618365159,763,942,651,1750
"182","pp15","ludiekheid",238,6.78219205600679,"heid",2.05,0,4.14313472639153,10,0,0,"correct",6.84800527457636,933,1024,684,782
"183","pp15","ovaalheid",248,6.60123011872888,"heid",2.23,0,5.86078622346587,9,0.526588927497426,1,"correct",6.61338421837956,1289,695,636,674
"184","pp15","visrijkheid",253,6.51767127291227,"baseheid",2.18,0,3.04452243772342,11,1.72894923152569,4,"correct",6.4707995037826,831,939,696,785
"185","pp15","pitloosheid",272,6.50128967054039,"heid",1.86,0,0,11,1.31050613197084,4,"correct",6.6682282484174,808,833,603,651
"186","pp15","jofelheid",274,6.52649485957079,"baseheid",2.64,0,3.3322045101752,9,0,0,"correct",6.66185474054531,871,666,808,833
"187","pp15","kalkrijkheid",276,6.53958595561767,"heid",2.09,0,3.13549421592915,12,1.48187723101362,3,"correct",6.93147180559945,694,683,871,666
"188","pp15","coulantheid",281,6.77536609093639,"heid",2.5,0,1.79175946922805,11,0,1,"incorrect",6.87832646829133,746,789,674,1050
"189","pp15","ontroerdheid",282,6.4723462945009,"baseheid",3.32,0,5.54907608489522,12,0,1,"correct",6.27852142416584,876,746,789,674
"190","pp15","markantheid",319,7.14677217945264,"baseheid",2.73,0,5.16478597392351,11,0,0,"correct",6.67076632084587,549,816,706,637
"191","pp15","summierheid",320,6.70563909486,"heid",2.14,0,5.29831736654804,11,0.526588927497426,0,"incorrect",6.61472560020376,1270,549,816,706
"192","pp15","enormheid",326,6.44888939414686,"baseheid",3,0,8.42463920980563,9,0.526588927497426,0,"correct",6.49526555593701,788,686,707,658
"193","pp15","onwelheid",329,6.41345895716736,"baseheid",2,0,3.97029191355212,9,1.7855468776495,1,"correct",6.50578406012823,675,668,632,788
"194","pp15","tilbaarheid",331,6.39526159811545,"baseheid",3.18,0,0,11,1.24844221891489,1,"correct",6.34738920965601,602,610,675,668
"195","pp15","geurloosheid",332,6.41836493593621,"baseheid",2.95,0,2.56494935746154,12,1.31050613197084,1,"correct",6.46302945692067,599,602,610,675
"196","pp15","pipsheid",344,6.78219205600679,"baseheid",1.86,0,3.3322045101752,8,0,0,"incorrect",6.3279367837292,670,737,777,639
"197","pp15","aftandsheid",346,6.40191719672719,"baseheid",2.05,0,4.20469261939097,11,0,0,"correct",6.52209279817015,696,882,670,737
"198","pp16","enormheid",79,6.30991827822652,"heid",3,0,8.42463920980563,9,0.526588927497426,0,"correct",6.25958146406492,621,501,576,657
"199","pp16","basaalheid",81,6.61069604471776,"baseheid",2.14,0,3.55534806148941,10,0,0,"correct",6.56807791141198,693,550,621,501
"200","pp16","markantheid",83,6.29710931993394,"heid",2.73,0,5.16478597392351,11,0,0,"correct",6.26720054854136,586,743,693,550
"201","pp16","ontroerdheid",89,6.52209279817015,"heid",3.32,0,5.54907608489522,12,0,1,"correct",6.46458830368996,519,649,603,608
"202","pp16","lobbigheid",92,6.44094654063292,"baseheid",1.82,0,0,10,0.741275220811803,3,"correct",6.43133108193348,627,580,680,519
"203","pp16","contentheid",95,6.45204895443723,"baseheid",2.5,0,4.49980967033027,11,0,1,"correct",6.3026189757449,664,790,627,627
"204","pp16","riantheid",96,6.3261494731551,"baseheid",2.36,0,4.53259949315326,9,0,0,"correct",6.27476202124194,634,664,790,627
"205","pp16","tembaarheid",111,6.42486902390539,"heid",3.73,0,0,11,1.02667222131998,0,"correct",6.84694313958538,598,644,635,968
"206","pp16","onattentheid",115,6.23244801655052,"heid",2.73,0,1.6094379124341,12,0,0,"correct",6.48768401848461,525,556,547,617
"207","pp16","bebrildheid",130,6.26339826259162,"baseheid",1.41,0,3.61091791264422,11,1.35850426878838,3,"incorrect",6.36302810354046,631,510,537,514
"208","pp16","aftandsheid",139,6.73459165997295,"heid",2.05,0,4.20469261939097,11,0,0,"correct",6.89972310728487,1479,601,543,767
"209","pp16","geurloosheid",143,6.49526555593701,"heid",2.95,0,2.56494935746154,12,1.31050613197084,1,"correct",6.30078579466324,611,639,760,841
"210","pp16","ovaalheid",157,6.26339826259162,"baseheid",2.23,0,5.86078622346587,9,0.526588927497426,1,"correct",6.24222326545517,605,710,694,640
"211","pp16","erkendheid",172,6.32076829425058,"baseheid",4.73,0,6.5191472879404,10,0,0,"correct",6.35610766069589,762,546,824,751
"212","pp16","coulantheid",174,6.33505425149806,"baseheid",2.5,0,1.79175946922805,11,0,1,"correct",6.62539236800796,623,556,762,546
"213","pp16","labielheid",196,6.36818718635049,"heid",3.23,0,4.38202663467388,10,0.526588927497426,0,"correct",6.40522845803084,579,609,654,597
"214","pp16","visrijkheid",200,6.41673228251233,"heid",2.18,0,3.04452243772342,11,1.72894923152569,4,"correct",6.36302810354046,717,489,516,583
"215","pp16","ondiepheid",206,6.46925031679577,"baseheid",2.77,0,5.66296048013595,10,1.57000245622518,1,"correct",6.34035930372775,633,862,611,571
"216","pp16","onwelheid",207,6.41673228251233,"heid",2,0,3.97029191355212,9,1.7855468776495,1,"correct",6.4425401664682,645,633,862,611
"217","pp16","blusbaarheid",209,6.67456139181443,"baseheid",2.91,0,0,12,1.19470700912477,0,"correct",6.71417052990947,614,612,645,633
"218","pp16","tilbaarheid",215,6.5206211275587,"heid",3.18,0,0,11,1.24844221891489,1,"correct",6.46302945692067,584,546,784,689
"219","pp16","gammelheid",221,6.3491389913798,"baseheid",2.55,0,4.91265488573605,10,0,0,"correct",6.91373735065968,675,534,757,758
"220","pp16","koketheid",228,6.4707995037826,"heid",2,0,4.78749174278205,9,0.741275220811803,0,"correct",6.55819780281227,566,535,590,623
"221","pp16","ludiekheid",232,6.33150184989369,"baseheid",2.05,0,4.14313472639153,10,0,0,"correct",6.3919171133926,514,541,497,646
"222","pp16","pipsheid",242,6.26909628370626,"heid",1.86,0,3.3322045101752,8,0,0,"incorrect",6.34738920965601,573,522,674,594
"223","pp16","banaalheid",252,6.49526555593701,"heid",2.64,0,5.73979291217923,10,0.526588927497426,0,"correct",6.66440902035041,566,513,654,569
"224","pp16","bezweetheid",257,6.57368016696065,"heid",3.36,0,4.75359019110636,11,1.37230699238395,1,"correct",6.63068338564237,650,566,709,535
"225","pp16","beschutheid",264,6.30444880242198,"heid",2.95,0,4.78749174278205,11,0.526588927497426,0,"correct",6.43454651878745,527,545,533,881
"226","pp16","antiekheid",271,6.18826412308259,"baseheid",2.23,0,6.74523634948436,10,0.869739858620314,2,"correct",6.24222326545517,586,581,734,585
"227","pp16","tactvolheid",274,6.50578406012823,"baseheid",2.55,0,4.75359019110636,11,1.24844221891489,1,"correct",6.51767127291227,537,782,487,586
"228","pp16","jofelheid",275,6.22653666928747,"heid",2.64,0,3.3322045101752,9,0,0,"correct",6.16120732169508,669,537,782,487
"229","pp16","pitloosheid",309,6.54821910276237,"baseheid",1.86,0,0,11,1.31050613197084,4,"correct",6.36475075685191,565,549,531,589
"230","pp16","summierheid",310,6.49828214947643,"baseheid",2.14,0,5.29831736654804,11,0.526588927497426,0,"correct",6.37331978957701,698,565,549,531
"231","pp16","kalkrijkheid",316,6.3919171133926,"baseheid",2.09,0,3.13549421592915,12,1.48187723101362,3,"correct",6.2709884318583,506,523,616,526
"232","pp16","onbelastheid",317,6.22653666928747,"baseheid",2.55,0,3.17805383034795,12,1.72894923152569,6,"correct",6.09807428216624,597,506,523,616
"233","pp16","kortafheid",326,6.3578422665081,"heid",2.36,0,5.86929691313377,10,1.62482689233404,1,"correct",6.59441345974978,528,605,549,566
"234","pp16","saprijkheid",333,6.23048144757848,"heid",1.95,0,0,11,1.51630236639884,2,"correct",6.60665018619822,674,579,478,543
"235","pp16","beuheid",337,6.34388043412633,"baseheid",1.73,0,5.06890420222023,7,0,0,"correct",6.50578406012823,507,762,506,508
"236","pp16","dementheid",343,6.18620862390049,"baseheid",3.23,0,3.8286413964891,10,0.741275220811803,0,"correct",6.60800062529609,509,603,626,631
"237","pp16","royaalheid",344,6.26149168432104,"heid",3.36,0,6.0913098820777,10,0.526588927497426,0,"correct",6.26149168432104,486,509,603,626
"238","pp17","riantheid",68,6.7900972355139,"baseheid",2.36,0,4.53259949315326,9,0,0,"correct",6.77308037565554,1149,955,1045,604
"239","pp17","beuheid",73,6.9177056098353,"baseheid",1.73,0,5.06890420222023,7,0,0,"correct",6.41673228251233,1377,911,1139,831
"240","pp17","ovaalheid",81,6.38687931936265,"baseheid",2.23,0,5.86078622346587,9,0.526588927497426,1,"correct",6.46769872610435,560,883,698,1108
"241","pp17","beschutheid",101,6.62539236800796,"heid",2.95,0,4.78749174278205,11,0.526588927497426,0,"correct",6.23244801655052,770,814,745,934
"242","pp17","tactvolheid",103,7.06646697013696,"baseheid",2.55,0,4.75359019110636,11,1.24844221891489,1,"correct",6.35262939631957,1259,754,770,814
"243","pp17","tembaarheid",105,7.0975488506148,"heid",3.73,0,0,11,1.02667222131998,0,"correct",6.95177216439891,848,1172,1259,754
"244","pp17","summierheid",130,7.05531284333975,"baseheid",2.14,0,5.29831736654804,11,0.526588927497426,0,"correct",6.72743172485086,928,1507,642,1149
"245","pp17","tilbaarheid",131,6.9782137426307,"heid",3.18,0,0,11,1.24844221891489,1,"correct",6.60394382460047,1159,928,1507,642
"246","pp17","labielheid",163,7.11801620446533,"heid",3.23,0,4.38202663467388,10,0.526588927497426,0,"correct",7.032624261028,860,1670,889,1081
"247","pp17","contentheid",164,6.74758652682932,"baseheid",2.5,0,4.49980967033027,11,0,1,"correct",6.58892647753352,1234,860,1670,889
"248","pp17","dementheid",180,6.7428806357919,"baseheid",3.23,0,3.8286413964891,10,0.741275220811803,0,"correct",6.53958595561767,813,1470,1029,850
"249","pp17","enormheid",181,7.2086003379602,"heid",3,0,8.42463920980563,9,0.526588927497426,0,"correct",7.1739583197568,848,813,1470,1029
"250","pp17","royaalheid",192,7.1276936993474,"heid",3.36,0,6.0913098820777,10,0.526588927497426,0,"incorrect",7.46737106691756,668,617,776,890
"251","pp17","jofelheid",196,7.04403289727469,"heid",2.64,0,3.3322045101752,9,0,0,"correct",6.73340189183736,573,1147,813,1246
"252","pp17","basaalheid",214,7.26403014289953,"baseheid",2.14,0,3.55534806148941,10,0,0,"correct",6.64248680136726,773,989,1058,1750
"253","pp17","kalkrijkheid",222,7.23993259132047,"baseheid",2.09,0,3.13549421592915,12,1.48187723101362,3,"correct",7.02286808608264,1489,845,838,851
"254","pp17","kortafheid",224,6.70808408385307,"heid",2.36,0,5.86929691313377,10,1.62482689233404,1,"correct",7.31521838975297,930,1394,1489,845
"255","pp17","ontroerdheid",243,6.83195356556585,"heid",3.32,0,5.54907608489522,12,0,1,"correct",6.99301512293296,894,747,1065,1022
"256","pp17","banaalheid",250,6.88243747099785,"heid",2.64,0,5.73979291217923,10,0.526588927497426,0,"incorrect",7.46737106691756,1067,1114,762,842
"257","pp17","erkendheid",253,6.65027904858742,"baseheid",4.73,0,6.5191472879404,10,0,0,"correct",6.65027904858742,1060,598,975,1067
"258","pp17","coulantheid",256,6.9622434642662,"baseheid",2.5,0,1.79175946922805,11,0,1,"correct",6.51471269087253,1215,588,773,1060
"259","pp17","geurloosheid",261,6.61606518513282,"heid",2.95,0,2.56494935746154,12,1.31050613197084,1,"correct",7.30586003268401,1018,613,595,1641
"260","pp17","ondiepheid",278,7.34148385236316,"baseheid",2.77,0,5.66296048013595,10,1.57000245622518,1,"correct",6.32256523992728,688,578,759,1536
"261","pp17","markantheid",279,6.72142570079064,"heid",2.73,0,5.16478597392351,11,0,0,"correct",6.92951677076365,1543,688,578,759
"262","pp17","bezweetheid",297,7.3078727807637,"heid",3.36,0,4.75359019110636,11,1.37230699238395,1,"incorrect",7.40306109109009,1303,1074,658,719
"263","pp17","koketheid",307,7.03614849375054,"heid",2,0,4.78749174278205,9,0.741275220811803,0,"correct",7.26332961747684,851,1372,897,1732
"264","pp17","onattentheid",310,6.92461239604856,"heid",2.73,0,1.6094379124341,12,0,0,"correct",7.46508273639955,768,943,1137,851
"265","pp17","onwelheid",320,7.14124512235049,"heid",2,0,3.97029191355212,9,1.7855468776495,1,"incorrect",7.10906213568717,796,1051,646,926
"266","pp18","koketheid",69,7.04141166379481,"heid",2,0,4.78749174278205,9,0.741275220811803,0,"incorrect",7.20414929203594,959,853,723,764
"267","pp18","bezweetheid",78,6.5132301109123,"heid",3.36,0,4.75359019110636,11,1.37230699238395,1,"correct",6.59304453414244,620,616,799,756
"268","pp18","ondiepheid",88,6.64509096950564,"baseheid",2.77,0,5.66296048013595,10,1.57000245622518,1,"correct",6.37672694789863,675,671,617,815
"269","pp18","saprijkheid",89,6.94312242281943,"heid",1.95,0,0,11,1.51630236639884,2,"incorrect",6.52649485957079,769,675,671,617
"270","pp18","royaalheid",97,6.98656645940643,"heid",3.36,0,6.0913098820777,10,0.526588927497426,0,"correct",6.45519856334012,863,1002,768,607
"271","pp18","antiekheid",101,6.32076829425058,"baseheid",2.23,0,6.74523634948436,10,0.869739858620314,2,"correct",6.37842618365159,612,657,634,1082
"272","pp18","beschutheid",110,6.93537044601511,"heid",2.95,0,4.78749174278205,11,0.526588927497426,0,"correct",7.06902342657826,811,583,815,820
"273","pp18","gammelheid",119,6.44571981938558,"baseheid",2.55,0,4.91265488573605,10,0,0,"correct",6.67456139181443,676,862,567,699
"274","pp18","tactvolheid",131,6.63594655568665,"baseheid",2.55,0,4.75359019110636,11,1.24844221891489,1,"correct",6.63068338564237,657,559,653,637
"275","pp18","onattentheid",143,6.65415252018322,"heid",2.73,0,1.6094379124341,12,0,0,"correct",6.77992190747225,679,625,538,956
"276","pp18","tembaarheid",144,6.5206211275587,"heid",3.73,0,0,11,1.02667222131998,0,"correct",6.7990558620588,776,679,625,538
"277","pp18","contentheid",146,6.5410299991899,"baseheid",2.5,0,4.49980967033027,11,0,1,"correct",6.7093043402583,588,679,776,679
"278","pp18","erkendheid",147,6.50128967054039,"baseheid",4.73,0,6.5191472879404,10,0,0,"correct",6.70318811324086,693,588,679,776
"279","pp18","riantheid",165,6.87316383421252,"baseheid",2.36,0,4.53259949315326,9,0,0,"correct",6.4150969591716,709,666,816,692
"280","pp18","beuheid",169,6.76157276880406,"baseheid",1.73,0,5.06890420222023,7,0,0,"correct",6.3261494731551,741,1215,594,966
"281","pp18","banaalheid",176,6.84054652928869,"heid",2.64,0,5.73979291217923,10,0.526588927497426,0,"correct",7.12608727329912,729,558,1057,688
"282","pp18","kortafheid",179,6.74051935960622,"heid",2.36,0,5.86929691313377,10,1.62482689233404,1,"correct",6.8627579130514,971,554,935,729
"283","pp18","blusbaarheid",189,6.59850902861452,"baseheid",2.91,0,0,12,1.19470700912477,0,"correct",6.48768401848461,571,697,609,727
"284","pp18","basaalheid",200,6.59987049921284,"baseheid",2.14,0,3.55534806148941,10,0,0,"correct",6.93439720992856,892,657,556,981
"285","pp18","ovaalheid",248,6.4118182677099,"baseheid",2.23,0,5.86078622346587,9,0.526588927497426,1,"correct",6.3456363608286,669,961,564,591
"286","pp18","visrijkheid",253,6.31535800152233,"heid",2.18,0,3.04452243772342,11,1.72894923152569,4,"correct",6.74641212857337,668,834,746,642
"287","pp18","labielheid",265,6.60258789218934,"heid",3.23,0,4.38202663467388,10,0.526588927497426,0,"correct",6.58202513889283,634,836,631,788
"288","pp18","onbelastheid",266,6.79682371827486,"baseheid",2.55,0,3.17805383034795,12,1.72894923152569,6,"correct",6.3985949345352,737,634,836,631
"289","pp18","pitloosheid",272,6.66568371778241,"baseheid",1.86,0,0,11,1.31050613197084,4,"correct",6.70686233660275,1137,712,626,798
"290","pp18","jofelheid",274,6.6945620585211,"heid",2.64,0,3.3322045101752,9,0,0,"correct",6.73933662735717,923,785,1137,712
"291","pp18","kalkrijkheid",276,6.6945620585211,"baseheid",2.09,0,3.13549421592915,12,1.48187723101362,3,"correct",6.53813982376767,767,808,923,785
"292","pp18","coulantheid",281,6.66057514983969,"baseheid",2.5,0,1.79175946922805,11,0,1,"correct",6.62539236800796,669,774,721,619
"293","pp18","ontroerdheid",282,6.48768401848461,"heid",3.32,0,5.54907608489522,12,0,1,"correct",7.28207365809346,781,669,774,721
"294","pp18","bebrildheid",303,6.71052310945243,"baseheid",1.41,0,3.61091791264422,11,1.35850426878838,3,"correct",6.7286286130847,685,609,550,608
"295","pp18","markantheid",319,6.45362499889269,"heid",2.73,0,5.16478597392351,11,0,0,"correct",6.65157187358973,563,505,599,709
"296","pp18","summierheid",320,6.51471269087253,"baseheid",2.14,0,5.29831736654804,11,0.526588927497426,0,"correct",6.50578406012823,635,563,505,599
"297","pp18","enormheid",326,6.37331978957701,"heid",3,0,8.42463920980563,9,0.526588927497426,0,"correct",6.78332520060396,551,640,837,647
"298","pp18","onwelheid",329,6.65286302935335,"heid",2,0,3.97029191355212,9,1.7855468776495,1,"correct",6.91671502035361,706,669,586,551
"299","pp18","tilbaarheid",331,6.46458830368996,"heid",3.18,0,0,11,1.24844221891489,1,"correct",6.41345895716736,1120,775,706,669
"300","pp18","geurloosheid",332,6.47697236288968,"heid",2.95,0,2.56494935746154,12,1.31050613197084,1,"correct",6.53233429222235,642,1120,775,706
"301","pp18","pipsheid",344,6.45833828334479,"heid",1.86,0,3.3322045101752,8,0,0,"correct",6.87832646829133,1011,1392,786,633
"302","pp18","aftandsheid",346,6.69950034016168,"heid",2.05,0,4.20469261939097,11,0,0,"correct",6.84268328223842,575,638,1011,1392
"303","pp19","enormheid",79,6.85646198459459,"baseheid",3,0,8.42463920980563,9,0.526588927497426,0,"correct",6.42486902390539,704,877,705,861
"304","pp19","basaalheid",81,6.69703424766648,"heid",2.14,0,3.55534806148941,10,0,0,"correct",6.80572255341699,664,950,704,877
"305","pp19","markantheid",83,6.63463335786169,"baseheid",2.73,0,5.16478597392351,11,0,0,"correct",6.46302945692067,697,810,664,950
"306","pp19","ontroerdheid",89,6.59578051396131,"baseheid",3.32,0,5.54907608489522,12,0,1,"correct",6.53378883793334,841,690,597,825
"307","pp19","lobbigheid",92,6.63331843328038,"heid",1.82,0,0,10,0.741275220811803,3,"correct",6.65286302935335,604,946,732,841
"308","pp19","contentheid",95,6.51025834052315,"heid",2.5,0,4.49980967033027,11,0,1,"correct",6.81892406527552,764,678,760,604
"309","pp19","riantheid",96,6.56526497003536,"heid",2.36,0,4.53259949315326,9,0,0,"correct",6.56244409369372,672,764,678,760
"310","pp19","tembaarheid",111,6.34212141872115,"baseheid",3.73,0,0,11,1.02667222131998,0,"correct",6.39024066706535,726,694,699,658
"311","pp19","onattentheid",115,6.60934924316738,"baseheid",2.73,0,1.6094379124341,12,0,0,"correct",6.75809450442773,598,628,638,568
"312","pp19","bebrildheid",130,6.54534966033442,"heid",1.41,0,3.61091791264422,11,1.35850426878838,3,"correct",6.85224256905188,739,560,812,639
"313","pp19","aftandsheid",139,6.84800527457636,"baseheid",2.05,0,4.20469261939097,11,0,0,"correct",6.62406522779989,649,609,709,852
"314","pp19","geurloosheid",143,6.51619307604296,"baseheid",2.95,0,2.56494935746154,12,1.31050613197084,1,"correct",6.38012253689976,650,728,774,942
"315","pp19","ovaalheid",157,6.41836493593621,"heid",2.23,0,5.86078622346587,9,0.526588927497426,1,"correct",6.50128967054039,593,681,573,713
"316","pp19","erkendheid",172,6.68336094576627,"heid",4.73,0,6.5191472879404,10,0,0,"incorrect",7.11395610956603,712,666,835,627
"317","pp19","coulantheid",174,6.56244409369372,"heid",2.5,0,1.79175946922805,11,0,1,"correct",6.76272950693188,584,799,712,666
"318","pp19","labielheid",196,6.61606518513282,"baseheid",3.23,0,4.38202663467388,10,0.526588927497426,0,"correct",6.38519439899773,703,656,636,743
"319","pp19","visrijkheid",200,6.58202513889283,"baseheid",2.18,0,3.04452243772342,11,1.72894923152569,4,"correct",6.49828214947643,699,1130,721,747
"320","pp19","ondiepheid",206,6.34388043412633,"heid",2.77,0,5.66296048013595,10,1.57000245622518,1,"correct",6.72262979485545,539,764,617,643
"321","pp19","onwelheid",207,6.46458830368996,"baseheid",2,0,3.97029191355212,9,1.7855468776495,1,"correct",6.38012253689976,569,539,764,617
"322","pp19","blusbaarheid",209,6.52502965784346,"heid",2.91,0,0,12,1.19470700912477,0,"correct",6.72743172485086,574,642,569,539
"323","pp19","tilbaarheid",215,6.51619307604296,"baseheid",3.18,0,0,11,1.24844221891489,1,"correct",6.3491389913798,650,738,639,596
"324","pp19","gammelheid",221,6.63987583382654,"heid",2.55,0,4.91265488573605,10,0,0,"correct",6.63331843328038,682,625,616,711
"325","pp19","koketheid",228,6.48616078894409,"baseheid",2,0,4.78749174278205,9,0.741275220811803,0,"correct",6.39692965521615,660,608,674,612
"326","pp19","ludiekheid",232,6.59987049921284,"heid",2.05,0,4.14313472639153,10,0,0,"correct",6.61069604471776,703,708,762,656
"327","pp19","pipsheid",242,6.51619307604296,"baseheid",1.86,0,3.3322045101752,8,0,0,"correct",6.46614472423762,825,697,682,622
"328","pp19","banaalheid",252,6.5510803350434,"baseheid",2.64,0,5.73979291217923,10,0.526588927497426,0,"correct",6.45990445437753,653,534,655,629
"329","pp19","bezweetheid",257,6.52209279817015,"baseheid",3.36,0,4.75359019110636,11,1.37230699238395,1,"correct",6.56667242980324,611,708,634,800
"330","pp19","beschutheid",264,6.68210859744981,"baseheid",2.95,0,4.78749174278205,11,0.526588927497426,0,"correct",6.41673228251233,713,694,689,872
"331","pp19","tactvolheid",274,6.64378973314767,"heid",2.55,0,4.75359019110636,11,1.24844221891489,1,"correct",6.69579891705849,846,1024,1078,829
"332","pp19","jofelheid",275,6.7286286130847,"baseheid",2.64,0,3.3322045101752,9,0,0,"correct",6.64768837356333,768,846,1024,1078
"333","pp19","pitloosheid",309,6.3750248198281,"heid",1.86,0,0,11,1.31050613197084,4,"correct",6.62007320653036,651,681,535,728
"334","pp19","summierheid",310,6.60665018619822,"heid",2.14,0,5.29831736654804,11,0.526588927497426,0,"correct",6.7202201551353,587,651,681,535
"335","pp19","kalkrijkheid",316,6.55393340402581,"heid",2.09,0,3.13549421592915,12,1.48187723101362,3,"correct",6.77422388635761,607,702,600,576
"336","pp19","onbelastheid",317,6.5792512120101,"heid",2.55,0,3.17805383034795,12,1.72894923152569,6,"incorrect",7.14361760270412,702,607,702,600
"337","pp19","kortafheid",326,6.49072353450251,"baseheid",2.36,0,5.86929691313377,10,1.62482689233404,1,"correct",6.53233429222235,709,844,1075,682
"338","pp19","saprijkheid",333,6.58479139238572,"baseheid",1.95,0,0,11,1.51630236639884,2,"correct",6.5510803350434,652,612,628,662
"339","pp19","beuheid",337,6.85118492749374,"heid",1.73,0,5.06890420222023,7,0,0,"correct",6.81234509417748,1157,907,557,724
"340","pp19","dementheid",343,6.5792512120101,"heid",3.23,0,3.8286413964891,10,0.741275220811803,0,"correct",6.4723462945009,607,636,720,781
"341","pp19","royaalheid",344,6.45990445437753,"baseheid",3.36,0,6.0913098820777,10,0.526588927497426,0,"correct",6.44888939414686,720,607,636,720
"342","pp2","riantheid",68,6.48616078894409,"heid",2.36,0,4.53259949315326,9,0,0,"correct",6.45676965557216,637,745,649,685
"343","pp2","beuheid",73,6.53958595561767,"heid",1.73,0,5.06890420222023,7,0,0,"incorrect",6.2709884318583,514,494,601,516
"344","pp2","ovaalheid",81,6.18001665365257,"heid",2.23,0,5.86078622346587,9,0.526588927497426,1,"correct",6.54678541076052,814,561,522,428
"345","pp2","aftandsheid",88,6.56385552653213,"baseheid",2.05,0,4.20469261939097,11,0,0,"incorrect",6.20455776256869,534,769,595,919
"346","pp2","beschutheid",101,6.3456363608286,"baseheid",2.95,0,4.78749174278205,11,0.526588927497426,0,"correct",6.14846829591765,590,508,560,600
"347","pp2","tactvolheid",103,6.17378610390194,"heid",2.55,0,4.75359019110636,11,1.24844221891489,1,"correct",6.60934924316738,538,570,590,508
"348","pp2","tembaarheid",105,6.26149168432104,"baseheid",3.73,0,0,11,1.02667222131998,0,"correct",6.47543271670409,699,480,538,570
"349","pp2","summierheid",130,6.35610766069589,"heid",2.14,0,5.29831736654804,11,0.526588927497426,0,"correct",6.43133108193348,657,616,495,584
"350","pp2","tilbaarheid",131,6.22257626807137,"baseheid",3.18,0,0,11,1.24844221891489,1,"correct",6.30991827822652,576,657,616,495
"351","pp2","pitloosheid",135,6.34212141872115,"heid",1.86,0,0,11,1.31050613197084,4,"correct",6.49072353450251,505,509,1750,504
"352","pp2","labielheid",163,6.48004456192665,"baseheid",3.23,0,4.38202663467388,10,0.526588927497426,0,"correct",6.35957386867238,561,743,544,860
"353","pp2","contentheid",164,6.22851100359118,"heid",2.5,0,4.49980967033027,11,0,1,"correct",6.66185474054531,652,561,743,544
"354","pp2","saprijkheid",178,6.71659477352098,"baseheid",1.95,0,0,11,1.51630236639884,2,"correct",6.48004456192665,625,528,562,790
"355","pp2","dementheid",180,6.23048144757848,"heid",3.23,0,3.8286413964891,10,0.741275220811803,0,"correct",6.25575004175337,753,826,625,528
"356","pp2","enormheid",181,6.3261494731551,"baseheid",3,0,8.42463920980563,9,0.526588927497426,0,"correct",6.20050917404269,508,753,826,625
"357","pp2","bebrildheid",185,6.48157712927643,"heid",1.41,0,3.61091791264422,11,1.35850426878838,3,"correct",6.98471632011827,514,679,818,559
"358","pp2","royaalheid",192,6.36647044773144,"baseheid",3.36,0,6.0913098820777,10,0.526588927497426,0,"correct",6.3135480462771,615,552,715,586
"359","pp2","jofelheid",196,6.16961073249146,"baseheid",2.64,0,3.3322045101752,9,0,0,"correct",6.21460809842219,508,604,691,582
"360","pp2","blusbaarheid",206,6.52649485957079,"heid",2.91,0,0,12,1.19470700912477,0,"incorrect",6.53958595561767,682,559,464,582
"361","pp2","basaalheid",214,6.1527326947041,"heid",2.14,0,3.55534806148941,10,0,0,"incorrect",6.67203294546107,665,527,593,489
"362","pp2","kalkrijkheid",222,6.24997524225948,"heid",2.09,0,3.13549421592915,12,1.48187723101362,3,"correct",6.70686233660275,534,645,697,608
"363","pp2","kortafheid",224,6.22059017009974,"baseheid",2.36,0,5.86929691313377,10,1.62482689233404,1,"correct",6.24222326545517,610,518,534,645
"364","pp2","ontroerdheid",243,6.40191719672719,"baseheid",3.32,0,5.54907608489522,12,0,1,"correct",6.13988455222626,678,704,591,488
"365","pp2","lobbigheid",249,7.34342622914737,"heid",1.82,0,0,10,0.741275220811803,3,"correct",6.57507584059962,1183,782,753,753
"366","pp2","banaalheid",250,6.3261494731551,"baseheid",2.64,0,5.73979291217923,10,0.526588927497426,0,"correct",6.19236248947487,1546,1183,782,753
"367","pp2","erkendheid",253,6.48157712927643,"heid",4.73,0,6.5191472879404,10,0,0,"correct",6.49978704065585,713,602,559,1546
"368","pp2","coulantheid",256,6.31173480915291,"heid",2.5,0,1.79175946922805,11,0,1,"correct",6.51767127291227,664,593,653,713
"369","pp2","geurloosheid",261,6.25190388316589,"baseheid",2.95,0,2.56494935746154,12,1.31050613197084,1,"correct",6.2803958389602,485,642,492,545
"370","pp2","antiekheid",271,6.04025471127741,"heid",2.23,0,6.74523634948436,10,0.869739858620314,2,"correct",6.3297209055227,533,671,464,724
"371","pp2","ludiekheid",273,6.67456139181443,"heid",2.05,0,4.14313472639153,10,0,0,"incorrect",6.57646956904822,534,420,533,671
"372","pp2","ondiepheid",278,6.10479323241498,"heid",2.77,0,5.66296048013595,10,1.57000245622518,1,"correct",6.5132301109123,635,494,625,878
"373","pp2","markantheid",279,6.25766758788264,"baseheid",2.73,0,5.16478597392351,11,0,0,"correct",6.19031540585315,448,635,494,625
"374","pp2","pipsheid",285,6.44888939414686,"baseheid",1.86,0,3.3322045101752,8,0,0,"correct",6.62406522779989,571,492,616,630
"375","pp2","bezweetheid",297,6.24804287450843,"baseheid",3.36,0,4.75359019110636,11,1.37230699238395,1,"correct",6.30078579466324,463,605,562,635
"376","pp2","onbelastheid",303,6.46302945692067,"heid",2.55,0,3.17805383034795,12,1.72894923152569,6,"correct",6.78105762593618,702,870,527,545
"377","pp2","koketheid",307,6.25766758788264,"baseheid",2,0,4.78749174278205,9,0.741275220811803,0,"correct",6.58479139238572,533,599,679,641
"378","pp2","onattentheid",310,6.29526600143965,"baseheid",2.73,0,1.6094379124341,12,0,0,"correct",6.27852142416584,572,575,522,533
"379","pp2","onwelheid",320,6.3578422665081,"baseheid",2,0,3.97029191355212,9,1.7855468776495,1,"correct",6.15697898558556,469,641,682,532
"380","pp2","visrijkheid",336,6.33150184989369,"baseheid",2.18,0,3.04452243772342,11,1.72894923152569,4,"correct",6.13772705408623,731,825,505,677
"381","pp2","gammelheid",338,6.35610766069589,"heid",2.55,0,4.91265488573605,10,0,0,"incorrect",6.37842618365159,511,562,731,825
"382","pp20","riantheid",68,6.45362499889269,"heid",2.36,0,4.53259949315326,9,0,0,"correct",6.55535689181067,741,678,526,804
"383","pp20","beuheid",73,6.71174039505618,"heid",1.73,0,5.06890420222023,7,0,0,"correct",6.68586094706836,603,518,736,803
"384","pp20","ovaalheid",81,6.71295620067707,"heid",2.23,0,5.86078622346587,9,0.526588927497426,1,"incorrect",6.24804287450843,695,674,574,520
"385","pp20","aftandsheid",88,6.71780469502369,"baseheid",2.05,0,4.20469261939097,11,0,0,"correct",6.76619171466035,557,1194,779,872
"386","pp20","beschutheid",101,6.29894924685594,"baseheid",2.95,0,4.78749174278205,11,0.526588927497426,0,"correct",6.36302810354046,708,744,501,844
"387","pp20","tactvolheid",103,6.40357419793482,"heid",2.55,0,4.75359019110636,11,1.24844221891489,1,"correct",6.5410299991899,720,544,708,744
"388","pp20","tembaarheid",105,6.46302945692067,"baseheid",3.73,0,0,11,1.02667222131998,0,"correct",6.26530121273771,650,604,720,544
"389","pp20","summierheid",130,6.68085467879022,"heid",2.14,0,5.29831736654804,11,0.526588927497426,0,"correct",6.5410299991899,496,772,760,932
"390","pp20","tilbaarheid",131,6.38687931936265,"baseheid",3.18,0,0,11,1.24844221891489,1,"correct",6.4393503711001,797,496,772,760
"391","pp20","pitloosheid",135,6.72982407048948,"heid",1.86,0,0,11,1.31050613197084,4,"correct",6.75227037614174,630,611,878,594
"392","pp20","labielheid",163,6.63987583382654,"baseheid",3.23,0,4.38202663467388,10,0.526588927497426,0,"correct",6.55250788703459,1750,623,846,610
"393","pp20","contentheid",164,6.36302810354046,"heid",2.5,0,4.49980967033027,11,0,1,"correct",6.6945620585211,765,1750,623,846
"394","pp20","saprijkheid",178,6.54534966033442,"baseheid",1.95,0,0,11,1.51630236639884,2,"correct",6.62804137617953,584,663,671,760
"395","pp20","dementheid",180,6.46769872610435,"heid",3.23,0,3.8286413964891,10,0.741275220811803,0,"correct",6.61204103483309,888,696,584,663
"396","pp20","royaalheid",192,6.59304453414244,"baseheid",3.36,0,6.0913098820777,10,0.526588927497426,0,"correct",6.36302810354046,561,762,721,719
"397","pp20","blusbaarheid",206,6.61606518513282,"heid",2.91,0,0,12,1.19470700912477,0,"correct",6.8351845861473,587,579,660,780
"398","pp20","basaalheid",214,6.51767127291227,"heid",2.14,0,3.55534806148941,10,0,0,"incorrect",6.63331843328038,735,651,734,658
"399","pp20","ontroerdheid",243,6.61740297797448,"baseheid",3.32,0,5.54907608489522,12,0,1,"correct",6.49223983502047,906,786,709,699
"400","pp20","banaalheid",250,6.53958595561767,"baseheid",2.64,0,5.73979291217923,10,0.526588927497426,0,"correct",6.48920493132532,911,756,630,719
"401","pp20","erkendheid",253,6.40191719672719,"heid",4.73,0,6.5191472879404,10,0,0,"correct",6.59987049921284,824,642,692,911
"402","pp20","geurloosheid",261,6.87109129461055,"baseheid",2.95,0,2.56494935746154,12,1.31050613197084,1,"correct",6.54821910276237,1106,699,874,721
"403","pp20","ludiekheid",273,7.04403289727469,"heid",2.05,0,4.14313472639153,10,0,0,"incorrect",6.37842618365159,722,1072,1029,735
"404","pp20","ondiepheid",278,6.94697599213542,"heid",2.77,0,5.66296048013595,10,1.57000245622518,1,"correct",7.12849594568004,733,632,676,675
"405","pp20","markantheid",279,6.6631326959908,"baseheid",2.73,0,5.16478597392351,11,0,0,"correct",6.54965074223381,1040,733,632,676
"406","pp20","bezweetheid",297,6.53958595561767,"baseheid",3.36,0,4.75359019110636,11,1.37230699238395,1,"correct",6.58063913728495,854,808,672,534
"407","pp20","onbelastheid",303,6.67959918584438,"heid",2.55,0,3.17805383034795,12,1.72894923152569,6,"correct",6.95844839329766,654,712,667,690
"408","pp20","koketheid",307,6.4281052726846,"baseheid",2,0,4.78749174278205,9,0.741275220811803,0,"correct",6.6052979209482,682,552,602,796
"409","pp21","bezweetheid",78,6.58479139238572,"baseheid",3.36,0,4.75359019110636,11,1.37230699238395,1,"correct",6.57088296233958,808,1459,866,1178
"410","pp21","royaalheid",97,7.02286808608264,"baseheid",3.36,0,6.0913098820777,10,0.526588927497426,0,"correct",6.88550967003482,1063,863,964,780
"411","pp21","antiekheid",101,7.15148546390474,"heid",2.23,0,6.74523634948436,10,0.869739858620314,2,"correct",7.02553831463852,746,871,873,1122
"412","pp21","beschutheid",110,6.40191719672719,"baseheid",2.95,0,4.78749174278205,11,0.526588927497426,0,"correct",6.65286302935335,838,808,783,1071
"413","pp21","gammelheid",119,6.89060912014717,"heid",2.55,0,4.91265488573605,10,0,0,"incorrect",7.12528309151071,1067,1086,872,1114
"414","pp21","tactvolheid",131,6.8627579130514,"heid",2.55,0,4.75359019110636,11,1.24844221891489,1,"correct",7.01660968389422,928,1441,1264,1562
"415","pp21","onattentheid",143,7.07749805356923,"baseheid",2.73,0,1.6094379124341,12,0,0,"incorrect",7.22402480828583,1275,1027,819,709
"416","pp21","tembaarheid",144,6.90173720665657,"baseheid",3.73,0,0,11,1.02667222131998,0,"correct",7.09589322109753,1185,1275,1027,819
"417","pp21","contentheid",146,6.96318998587024,"heid",2.5,0,4.49980967033027,11,0,1,"correct",6.97634807044775,562,994,1185,1275
"418","pp21","erkendheid",147,7.06902342657826,"heid",4.73,0,6.5191472879404,10,0,0,"correct",6.6631326959908,1057,562,994,1185
"419","pp21","riantheid",165,6.88653164253051,"heid",2.36,0,4.53259949315326,9,0,0,"correct",6.8330317327862,812,999,960,923
"420","pp21","beuheid",169,7.03614849375054,"heid",1.73,0,5.06890420222023,7,0,0,"correct",7.27309259599952,976,1247,693,979
"421","pp21","dementheid",173,6.58063913728495,"heid",3.23,0,3.8286413964891,10,0.741275220811803,0,"incorrect",7.41938058291869,901,749,928,1137
"422","pp21","banaalheid",176,7.08002649992259,"baseheid",2.64,0,5.73979291217923,10,0.526588927497426,0,"correct",6.72142570079064,1043,1368,721,901
"423","pp21","blusbaarheid",189,6.8373328146856,"heid",2.91,0,0,12,1.19470700912477,0,"correct",7.41577697541539,833,694,983,639
"424","pp21","basaalheid",200,6.98841318199959,"heid",2.14,0,3.55534806148941,10,0,0,"incorrect",6.73459165997295,945,907,713,1350
"425","pp21","ludiekheid",238,7.38523092306657,"heid",2.05,0,4.14313472639153,10,0,0,"correct",6.81014245011514,737,1023,873,655
"426","pp21","ovaalheid",248,6.72383244082121,"heid",2.23,0,5.86078622346587,9,0.526588927497426,1,"correct",7.01929665371504,1355,805,924,704
"427","pp21","visrijkheid",253,6.57786135772105,"baseheid",2.18,0,3.04452243772342,11,1.72894923152569,4,"correct",6.63463335786169,832,734,866,957
"428","pp21","lobbigheid",260,6.80350525760834,"heid",1.82,0,0,10,0.741275220811803,3,"correct",6.9027427371586,783,773,710,651
"429","pp21","labielheid",265,6.72142570079064,"baseheid",3.23,0,4.38202663467388,10,0.526588927497426,0,"correct",6.83195356556585,760,1367,1046,1001
"430","pp21","onbelastheid",266,7.05358572719368,"heid",2.55,0,3.17805383034795,12,1.72894923152569,6,"incorrect",7.46737106691756,830,760,1367,1046
"431","pp21","pitloosheid",272,6.64509096950564,"heid",1.86,0,0,11,1.31050613197084,4,"correct",6.74170069465205,1102,1216,934,988
"432","pp21","jofelheid",274,6.43454651878745,"baseheid",2.64,0,3.3322045101752,9,0,0,"correct",6.48463523563525,964,769,1102,1216
"433","pp21","kalkrijkheid",276,6.5410299991899,"heid",2.09,0,3.13549421592915,12,1.48187723101362,3,"correct",6.93049476595163,854,623,964,769
"434","pp21","coulantheid",281,6.79570577517351,"heid",2.5,0,1.79175946922805,11,0,1,"incorrect",6.79794041297493,1168,738,656,673
"435","pp21","ontroerdheid",282,6.80793494369993,"baseheid",3.32,0,5.54907608489522,12,0,1,"correct",6.69950034016168,894,1168,738,656
"436","pp21","markantheid",319,7.032624261028,"baseheid",2.73,0,5.16478597392351,11,0,0,"correct",6.60394382460047,962,956,1048,1175
"437","pp21","summierheid",320,6.88755257166462,"heid",2.14,0,5.29831736654804,11,0.526588927497426,0,"correct",7.06304816338817,1133,962,956,1048
"438","pp21","enormheid",326,6.64248680136726,"baseheid",3,0,8.42463920980563,9,0.526588927497426,0,"correct",6.47697236288968,821,900,863,1160
"439","pp21","tilbaarheid",331,6.8001700683022,"baseheid",3.18,0,0,11,1.24844221891489,1,"correct",6.44730586254121,948,1276,1014,1340
"440","pp21","geurloosheid",332,6.63200177739563,"baseheid",2.95,0,2.56494935746154,12,1.31050613197084,1,"correct",6.65544035036765,898,948,1276,1014
"441","pp21","pipsheid",344,6.94793706861497,"baseheid",1.86,0,3.3322045101752,8,0,0,"correct",6.75925527066369,873,965,1750,1137
"442","pp22","enormheid",79,6.34212141872115,"heid",3,0,8.42463920980563,9,0.526588927497426,0,"correct",6.57088296233958,722,659,747,837
"443","pp22","basaalheid",81,6.50876913697168,"baseheid",2.14,0,3.55534806148941,10,0,0,"correct",6.55961523749324,625,568,722,659
"444","pp22","markantheid",83,6.55677835615804,"heid",2.73,0,5.16478597392351,11,0,0,"correct",6.57368016696065,720,671,625,568
"445","pp22","ontroerdheid",89,6.3261494731551,"heid",3.32,0,5.54907608489522,12,0,1,"correct",6.48004456192665,645,753,721,741
"446","pp22","lobbigheid",92,6.54965074223381,"baseheid",1.82,0,0,10,0.741275220811803,3,"correct",6.55677835615804,628,650,559,645
"447","pp22","contentheid",95,6.6631326959908,"baseheid",2.5,0,4.49980967033027,11,0,1,"correct",6.50128967054039,785,807,699,628
"448","pp22","riantheid",96,6.3818160174061,"baseheid",2.36,0,4.53259949315326,9,0,0,"correct",6.70073110954781,783,785,807,699
"449","pp22","tembaarheid",111,6.7428806357919,"heid",3.73,0,0,11,1.02667222131998,0,"correct",6.99025650049388,640,649,648,664
"450","pp22","onattentheid",115,6.32256523992728,"heid",2.73,0,1.6094379124341,12,0,0,"correct",6.72982407048948,764,1475,1236,848
"451","pp22","bebrildheid",130,6.64118216974059,"baseheid",1.41,0,3.61091791264422,11,1.35850426878838,3,"correct",6.47697236288968,624,571,801,761
"452","pp22","aftandsheid",139,6.87729607149743,"heid",2.05,0,4.20469261939097,11,0,0,"correct",6.95177216439891,748,683,545,614
"453","pp22","geurloosheid",143,6.3818160174061,"heid",2.95,0,2.56494935746154,12,1.31050613197084,1,"correct",6.63594655568665,574,578,941,970
"454","pp22","ovaalheid",157,6.5694814204143,"baseheid",2.23,0,5.86078622346587,9,0.526588927497426,1,"correct",6.3456363608286,1217,600,628,654
"455","pp22","erkendheid",172,6.289715570909,"baseheid",4.73,0,6.5191472879404,10,0,0,"correct",6.35262939631957,722,650,651,689
"456","pp22","coulantheid",174,6.46458830368996,"baseheid",2.5,0,1.79175946922805,11,0,1,"correct",6.61472560020376,666,539,722,650
"457","pp22","labielheid",196,6.54821910276237,"heid",3.23,0,4.38202663467388,10,0.526588927497426,0,"correct",7.10414409298753,655,737,787,1081
"458","pp22","visrijkheid",200,6.55677835615804,"heid",2.18,0,3.04452243772342,11,1.72894923152569,4,"correct",6.88448665204278,1511,641,537,698
"459","pp22","ondiepheid",206,6.62539236800796,"baseheid",2.77,0,5.66296048013595,10,1.57000245622518,1,"incorrect",7.46737106691756,665,690,657,686
"460","pp22","onwelheid",207,6.40357419793482,"heid",2,0,3.97029191355212,9,1.7855468776495,1,"correct",6.59167373200866,754,665,690,657
"461","pp22","blusbaarheid",209,6.73933662735717,"baseheid",2.91,0,0,12,1.19470700912477,0,"correct",6.47850964220857,796,604,754,665
"462","pp22","tilbaarheid",215,6.46769872610435,"heid",3.18,0,0,11,1.24844221891489,1,"correct",6.45676965557216,590,681,567,570
"463","pp22","gammelheid",221,6.35088571671474,"baseheid",2.55,0,4.91265488573605,10,0,0,"correct",6.3491389913798,745,641,767,1145
"464","pp22","koketheid",228,6.76849321164863,"heid",2,0,4.78749174278205,9,0.741275220811803,0,"correct",6.64378973314767,633,630,695,555
"465","pp22","ludiekheid",232,6.53958595561767,"baseheid",2.05,0,4.14313472639153,10,0,0,"correct",6.98564181763921,633,667,633,870
"466","pp22","pipsheid",242,6.36818718635049,"heid",1.86,0,3.3322045101752,8,0,0,"incorrect",6.53087762772588,640,756,580,658
"467","pp22","banaalheid",252,6.42324696353352,"heid",2.64,0,5.73979291217923,10,0.526588927497426,0,"correct",6.34035930372775,697,524,633,532
"468","pp22","bezweetheid",257,6.41673228251233,"heid",3.36,0,4.75359019110636,11,1.37230699238395,1,"correct",7.04315991598834,523,618,638,591
"469","pp22","beschutheid",264,6.47389069635227,"heid",2.95,0,4.78749174278205,11,0.526588927497426,0,"correct",6.31896811374643,569,649,680,916
"470","pp22","antiekheid",271,6.62539236800796,"baseheid",2.23,0,6.74523634948436,10,0.869739858620314,2,"correct",6.45047042214418,630,531,550,652
"471","pp22","tactvolheid",274,6.49375383985169,"baseheid",2.55,0,4.75359019110636,11,1.24844221891489,1,"correct",6.17378610390194,837,1051,754,630
"472","pp22","jofelheid",275,6.71417052990947,"heid",2.64,0,3.3322045101752,9,0,0,"correct",6.42648845745769,661,837,1051,754
"473","pp22","pitloosheid",309,6.53958595561767,"baseheid",1.86,0,0,11,1.31050613197084,4,"correct",6.27476202124194,912,686,608,601
"474","pp22","summierheid",310,6.55677835615804,"baseheid",2.14,0,5.29831736654804,11,0.526588927497426,0,"correct",6.44571981938558,692,912,686,608
"475","pp22","kalkrijkheid",316,6.45676965557216,"baseheid",2.09,0,3.13549421592915,12,1.48187723101362,3,"correct",6.4707995037826,498,643,626,941
"476","pp22","onbelastheid",317,6.67203294546107,"baseheid",2.55,0,3.17805383034795,12,1.72894923152569,6,"correct",6.59578051396131,637,498,643,626
"477","pp22","kortafheid",326,6.69084227741856,"heid",2.36,0,5.86929691313377,10,1.62482689233404,1,"correct",6.60800062529609,679,602,766,742
"478","pp22","saprijkheid",333,6.3261494731551,"heid",1.95,0,0,11,1.51630236639884,2,"correct",6.65544035036765,534,602,530,574
"479","pp22","beuheid",337,6.49828214947643,"baseheid",1.73,0,5.06890420222023,7,0,0,"correct",6.57088296233958,628,694,832,559
"480","pp22","dementheid",343,6.60258789218934,"baseheid",3.23,0,3.8286413964891,10,0.741275220811803,0,"correct",6.27852142416584,555,571,783,653
"481","pp22","royaalheid",344,6.2803958389602,"heid",3.36,0,6.0913098820777,10,0.526588927497426,0,"correct",6.3985949345352,737,555,571,783
"482","pp23","riantheid",68,6.3297209055227,"baseheid",2.36,0,4.53259949315326,9,0,0,"correct",6.46925031679577,841,1536,928,613
"483","pp23","beuheid",73,6.3578422665081,"baseheid",1.73,0,5.06890420222023,7,0,0,"correct",6.32256523992728,683,648,861,724
"484","pp23","aftandsheid",88,7.17011954344963,"heid",2.05,0,4.20469261939097,11,0,0,"correct",7.07918439460967,862,917,894,695
"485","pp23","beschutheid",101,6.32256523992728,"heid",2.95,0,4.78749174278205,11,0.526588927497426,0,"incorrect",6.88550967003482,660,810,677,569
"486","pp23","tactvolheid",103,6.41017488196617,"baseheid",2.55,0,4.75359019110636,11,1.24844221891489,1,"correct",6.3261494731551,613,557,660,810
"487","pp23","tembaarheid",105,7.38956395367764,"heid",3.73,0,0,11,1.02667222131998,0,"incorrect",6.8330317327862,596,608,613,557
"488","pp23","summierheid",130,7.44541755670169,"baseheid",2.14,0,5.29831736654804,11,0.526588927497426,0,"correct",6.52502965784346,843,520,486,489
"489","pp23","tilbaarheid",131,6.79794041297493,"heid",3.18,0,0,11,1.24844221891489,1,"correct",7.1693500166706,1712,843,520,486
"490","pp23","pitloosheid",135,6.85540879860993,"baseheid",1.86,0,0,11,1.31050613197084,4,"correct",6.76619171466035,607,667,646,896
"491","pp23","labielheid",163,6.53233429222235,"heid",3.23,0,4.38202663467388,10,0.526588927497426,0,"correct",7.03702761468628,591,672,582,535
"492","pp23","contentheid",164,6.76734312526539,"baseheid",2.5,0,4.49980967033027,11,0,1,"correct",6.52941883826223,687,591,672,582
"493","pp23","saprijkheid",178,6.35957386867238,"heid",1.95,0,0,11,1.51630236639884,2,"correct",6.72262979485545,574,535,608,1541
"494","pp23","dementheid",180,6.40687998606931,"baseheid",3.23,0,3.8286413964891,10,0.741275220811803,0,"correct",6.43294009273918,558,578,574,535
"495","pp23","enormheid",181,6.16751649088834,"heid",3,0,8.42463920980563,9,0.526588927497426,0,"correct",7.2181768384034,606,558,578,574
"496","pp23","bebrildheid",185,7.20563517641036,"baseheid",1.41,0,3.61091791264422,11,1.35850426878838,3,"correct",7.10496544826984,968,688,744,477
"497","pp23","royaalheid",192,6.45833828334479,"heid",3.36,0,6.0913098820777,10,0.526588927497426,0,"correct",6.9177056098353,636,592,702,483
"498","pp23","jofelheid",196,6.40357419793482,"heid",2.64,0,3.3322045101752,9,0,0,"correct",6.48157712927643,579,495,698,638
"499","pp23","basaalheid",214,6.35610766069589,"baseheid",2.14,0,3.55534806148941,10,0,0,"correct",7.34018683532012,721,676,785,690
"500","pp23","kalkrijkheid",222,6.38012253689976,"baseheid",2.09,0,3.13549421592915,12,1.48187723101362,3,"correct",6.61204103483309,936,702,623,506
"501","pp23","kortafheid",224,6.30444880242198,"heid",2.36,0,5.86929691313377,10,1.62482689233404,1,"correct",6.87523208727658,755,590,936,702
"502","pp23","ontroerdheid",243,6.27664348934164,"heid",3.32,0,5.54907608489522,12,0,1,"correct",6.66185474054531,644,864,599,635
"503","pp23","lobbigheid",249,6.82001636467413,"baseheid",1.82,0,0,10,0.741275220811803,3,"correct",6.61873898351722,799,532,705,515
"504","pp23","banaalheid",250,6.4425401664682,"heid",2.64,0,5.73979291217923,10,0.526588927497426,0,"correct",6.5366915975913,916,799,532,705
"505","pp23","erkendheid",253,6.16541785423142,"baseheid",4.73,0,6.5191472879404,10,0,0,"correct",6.58063913728495,564,585,628,916
"506","pp23","coulantheid",256,6.43133108193348,"baseheid",2.5,0,1.79175946922805,11,0,1,"correct",6.76272950693188,875,546,476,564
"507","pp23","geurloosheid",261,6.82979373751242,"heid",2.95,0,2.56494935746154,12,1.31050613197084,1,"correct",6.84161547647759,663,629,1095,1248
"508","pp23","antiekheid",271,6.30991827822652,"baseheid",2.23,0,6.74523634948436,10,0.869739858620314,2,"correct",6.37331978957701,1111,781,586,1000
"509","pp23","ludiekheid",273,6.68336094576627,"baseheid",2.05,0,4.14313472639153,10,0,0,"correct",6.50727771238501,535,550,1111,781
"510","pp23","ondiepheid",278,6.70073110954781,"baseheid",2.77,0,5.66296048013595,10,1.57000245622518,1,"correct",6.44094654063292,533,598,879,847
"511","pp23","markantheid",279,6.27664348934164,"heid",2.73,0,5.16478597392351,11,0,0,"correct",6.45362499889269,813,533,598,879
"512","pp23","pipsheid",285,6.69826805411541,"heid",1.86,0,3.3322045101752,8,0,0,"incorrect",6.24416690066374,806,488,670,870
"513","pp23","onbelastheid",303,6.72623340235875,"baseheid",2.55,0,3.17805383034795,12,1.72894923152569,6,"correct",6.99576615630485,645,588,756,763
"514","pp23","koketheid",307,6.55961523749324,"heid",2,0,4.78749174278205,9,0.741275220811803,0,"correct",6.90775527898214,610,839,579,834
"515","pp23","onattentheid",310,6.85856503479136,"heid",2.73,0,1.6094379124341,12,0,0,"correct",7.01301578963963,1051,593,706,610
"516","pp23","onwelheid",320,6.9177056098353,"heid",2,0,3.97029191355212,9,1.7855468776495,1,"incorrect",6.89060912014717,723,629,638,1056
"517","pp23","visrijkheid",336,6.73340189183736,"heid",2.18,0,3.04452243772342,11,1.72894923152569,4,"correct",6.88448665204278,462,641,573,631
"518","pp23","gammelheid",338,6.5132301109123,"baseheid",2.55,0,4.91265488573605,10,0,0,"correct",6.56385552653213,763,840,462,641
"519","pp24","koketheid",69,6.4707995037826,"heid",2,0,4.78749174278205,9,0.741275220811803,0,"correct",6.95272864462487,678,732,988,1187
"520","pp24","bezweetheid",78,6.57368016696065,"heid",3.36,0,4.75359019110636,11,1.37230699238395,1,"correct",6.8373328146856,617,1240,1041,953
"521","pp24","ondiepheid",88,6.93049476595163,"baseheid",2.77,0,5.66296048013595,10,1.57000245622518,1,"correct",6.31535800152233,943,1162,768,1162
"522","pp24","saprijkheid",89,7.2232956795623,"heid",1.95,0,0,11,1.51630236639884,2,"correct",7.41758040241454,1023,943,1162,768
"523","pp24","royaalheid",97,6.37161184723186,"heid",3.36,0,6.0913098820777,10,0.526588927497426,0,"correct",6.34738920965601,734,1541,727,677
"524","pp24","antiekheid",101,6.64898455002478,"baseheid",2.23,0,6.74523634948436,10,0.869739858620314,2,"correct",6.37672694789863,645,668,718,585
"525","pp24","beschutheid",110,6.23832462503951,"heid",2.95,0,4.78749174278205,11,0.526588927497426,0,"correct",6.50128967054039,770,627,651,617
"526","pp24","gammelheid",119,6.44571981938558,"baseheid",2.55,0,4.91265488573605,10,0,0,"incorrect",6.43615036836943,784,1267,784,824
"527","pp24","tactvolheid",131,6.56667242980324,"baseheid",2.55,0,4.75359019110636,11,1.24844221891489,1,"correct",6.44094654063292,685,704,791,1175
"528","pp24","onattentheid",143,6.7990558620588,"heid",2.73,0,1.6094379124341,12,0,0,"correct",6.95272864462487,713,611,529,826
"529","pp24","tembaarheid",144,6.46146817635372,"heid",3.73,0,0,11,1.02667222131998,0,"correct",6.74641212857337,897,713,611,529
"530","pp24","contentheid",146,6.3578422665081,"baseheid",2.5,0,4.49980967033027,11,0,1,"correct",6.42486902390539,554,640,897,713
"531","pp24","erkendheid",147,6.45047042214418,"baseheid",4.73,0,6.5191472879404,10,0,0,"correct",6.47850964220857,577,554,640,897
"532","pp24","riantheid",165,6.46146817635372,"baseheid",2.36,0,4.53259949315326,9,0,0,"correct",6.92362862813843,574,773,776,820
"533","pp24","beuheid",169,6.7990558620588,"baseheid",1.73,0,5.06890420222023,7,0,0,"correct",6.55677835615804,635,1135,625,640
"534","pp24","dementheid",173,6.7202201551353,"baseheid",3.23,0,3.8286413964891,10,0.741275220811803,0,"correct",6.64378973314767,882,729,693,897
"535","pp24","banaalheid",176,6.48616078894409,"heid",2.64,0,5.73979291217923,10,0.526588927497426,0,"correct",6.68710860786651,599,613,829,882
"536","pp24","kortafheid",179,7.41938058291869,"heid",2.36,0,5.86929691313377,10,1.62482689233404,1,"correct",6.71659477352098,656,503,656,599
"537","pp24","blusbaarheid",189,6.80461452006262,"baseheid",2.91,0,0,12,1.19470700912477,0,"correct",6.72743172485086,928,702,503,840
"538","pp24","basaalheid",200,6.42971947803914,"baseheid",2.14,0,3.55534806148941,10,0,0,"correct",6.61338421837956,602,576,629,1205
"539","pp24","ludiekheid",238,6.59850902861452,"baseheid",2.05,0,4.14313472639153,10,0,0,"correct",6.35610766069589,684,718,661,745
"540","pp24","ovaalheid",248,6.87523208727658,"baseheid",2.23,0,5.86078622346587,9,0.526588927497426,1,"correct",6.55961523749324,697,1119,739,706
"541","pp24","visrijkheid",253,6.55535689181067,"heid",2.18,0,3.04452243772342,11,1.72894923152569,4,"incorrect",6.55535689181067,791,687,689,924
"542","pp24","lobbigheid",260,6.5410299991899,"baseheid",1.82,0,0,10,0.741275220811803,3,"correct",6.78897174299217,980,1053,565,650
"543","pp24","labielheid",265,6.42162226780652,"heid",3.23,0,4.38202663467388,10,0.526588927497426,0,"correct",6.50128967054039,729,633,882,1431
"544","pp24","onbelastheid",266,6.55535689181067,"baseheid",2.55,0,3.17805383034795,12,1.72894923152569,6,"correct",6.82328612235569,615,729,633,882
"545","pp24","pitloosheid",272,6.54965074223381,"baseheid",1.86,0,0,11,1.31050613197084,4,"correct",6.38687931936265,755,649,899,792
"546","pp24","jofelheid",274,6.3456363608286,"heid",2.64,0,3.3322045101752,9,0,0,"correct",6.61338421837956,906,699,755,649
"547","pp24","kalkrijkheid",276,6.83625927727707,"baseheid",2.09,0,3.13549421592915,12,1.48187723101362,3,"correct",6.57646956904822,800,570,906,699
"548","pp24","coulantheid",281,6.45676965557216,"baseheid",2.5,0,1.79175946922805,11,0,1,"correct",6.8596149036542,761,1086,956,786
"549","pp24","ontroerdheid",282,6.8001700683022,"heid",3.32,0,5.54907608489522,12,0,1,"correct",6.75460409948796,637,761,1086,956
"550","pp24","bebrildheid",303,6.49526555593701,"baseheid",1.41,0,3.61091791264422,11,1.35850426878838,3,"incorrect",6.45047042214418,584,677,527,864
"551","pp24","markantheid",319,6.57368016696065,"heid",2.73,0,5.16478597392351,11,0,0,"incorrect",6.99025650049388,647,825,806,680
"552","pp24","summierheid",320,6.45519856334012,"baseheid",2.14,0,5.29831736654804,11,0.526588927497426,0,"correct",6.63463335786169,716,647,825,806
"553","pp24","enormheid",326,6.31896811374643,"heid",3,0,8.42463920980563,9,0.526588927497426,0,"correct",6.68461172766793,634,753,675,407
"554","pp24","onwelheid",329,7.15070145759253,"heid",2,0,3.97029191355212,9,1.7855468776495,1,"incorrect",6.44413125670044,961,971,555,634
"555","pp24","tilbaarheid",331,6.84374994900622,"heid",3.18,0,0,11,1.24844221891489,1,"correct",6.49526555593701,845,1275,961,971
"556","pp24","geurloosheid",332,6.75809450442773,"heid",2.95,0,2.56494935746154,12,1.31050613197084,1,"correct",6.8679744089703,938,845,1275,961
"557","pp24","pipsheid",344,6.3750248198281,"heid",1.86,0,3.3322045101752,8,0,0,"incorrect",6.59578051396131,1061,1035,793,1274
"558","pp24","aftandsheid",346,6.24222326545517,"heid",2.05,0,4.20469261939097,11,0,0,"correct",6.81454289725996,676,587,1061,1035
"559","pp25","enormheid",79,6.13772705408623,"baseheid",3,0,8.42463920980563,9,0.526588927497426,0,"correct",6.11589212548303,493,606,742,784
"560","pp25","basaalheid",81,6.43615036836943,"heid",2.14,0,3.55534806148941,10,0,0,"incorrect",6.27476202124194,551,463,493,606
"561","pp25","markantheid",83,6.31535800152233,"baseheid",2.73,0,5.16478597392351,11,0,0,"correct",6.45047042214418,510,624,551,463
"562","pp25","ontroerdheid",89,6.31535800152233,"baseheid",3.32,0,5.54907608489522,12,0,1,"correct",6.40025744530882,565,631,489,617
"563","pp25","lobbigheid",92,6.37842618365159,"heid",1.82,0,0,10,0.741275220811803,3,"correct",6.70318811324086,571,485,553,565
"564","pp25","contentheid",95,6.54534966033442,"heid",2.5,0,4.49980967033027,11,0,1,"correct",6.73340189183736,583,579,589,571
"565","pp25","riantheid",96,6.26530121273771,"heid",2.36,0,4.53259949315326,9,0,0,"correct",6.44571981938558,696,583,579,589
"566","pp25","tembaarheid",111,6.33150184989369,"baseheid",3.73,0,0,11,1.02667222131998,0,"correct",6.35610766069589,621,528,582,640
"567","pp25","onattentheid",115,6.42486902390539,"baseheid",2.73,0,1.6094379124341,12,0,0,"correct",6.66440902035041,500,672,595,562
"568","pp25","aftandsheid",139,6.42648845745769,"baseheid",2.05,0,4.20469261939097,11,0,0,"incorrect",6.3261494731551,682,539,513,615
"569","pp25","geurloosheid",143,6.47389069635227,"baseheid",2.95,0,2.56494935746154,12,1.31050613197084,1,"incorrect",6.06145691892802,804,856,917,618
"570","pp25","ovaalheid",157,6.4377516497364,"heid",2.23,0,5.86078622346587,9,0.526588927497426,1,"incorrect",7.00488198971286,510,637,520,627
"571","pp25","erkendheid",172,6.1779441140506,"heid",4.73,0,6.5191472879404,10,0,0,"correct",6.32435896238131,559,510,567,574
"572","pp25","coulantheid",174,6.22257626807137,"heid",2.5,0,1.79175946922805,11,0,1,"correct",6.75227037614174,489,482,559,510
"573","pp25","labielheid",196,6.22257626807137,"baseheid",3.23,0,4.38202663467388,10,0.526588927497426,0,"correct",6.23441072571837,559,515,564,563
"574","pp25","visrijkheid",200,6.21060007702465,"baseheid",2.18,0,3.04452243772342,11,1.72894923152569,4,"correct",6.49072353450251,579,480,504,504
"575","pp25","ondiepheid",206,6.29156913955832,"heid",2.77,0,5.66296048013595,10,1.57000245622518,1,"incorrect",6.94408720822953,504,619,731,761
"576","pp25","blusbaarheid",209,6.56385552653213,"heid",2.91,0,0,12,1.19470700912477,0,"correct",6.34035930372775,749,693,540,504
"577","pp25","tilbaarheid",215,6.33327962813969,"baseheid",3.18,0,0,11,1.24844221891489,1,"correct",6.29156913955832,996,660,541,585
"578","pp25","gammelheid",221,6.41836493593621,"heid",2.55,0,4.91265488573605,10,0,0,"correct",6.67203294546107,488,1750,619,586
"579","pp25","ludiekheid",232,6.61873898351722,"heid",2.05,0,4.14313472639153,10,0,0,"incorrect",6.33327962813969,703,761,634,470
"580","pp25","pipsheid",242,6.57646956904822,"baseheid",1.86,0,3.3322045101752,8,0,0,"incorrect",6.63463335786169,501,573,495,572
"581","pp25","banaalheid",252,6.22653666928747,"baseheid",2.64,0,5.73979291217923,10,0.526588927497426,0,"correct",6.29341927884648,712,642,807,747
"582","pp25","bezweetheid",257,6.35262939631957,"baseheid",3.36,0,4.75359019110636,11,1.37230699238395,1,"correct",6.37331978957701,895,593,842,495
"583","pp25","beschutheid",264,6.22653666928747,"baseheid",2.95,0,4.78749174278205,11,0.526588927497426,0,"correct",6.71174039505618,537,553,534,487
"584","pp25","antiekheid",271,6.36990098282823,"heid",2.23,0,6.74523634948436,10,0.869739858620314,2,"correct",6.55535689181067,467,735,525,462
"585","pp25","tactvolheid",274,6.32256523992728,"heid",2.55,0,4.75359019110636,11,1.24844221891489,1,"correct",6.77308037565554,648,582,584,467
"586","pp25","jofelheid",275,6.43454651878745,"baseheid",2.64,0,3.3322045101752,9,0,0,"correct",6.44094654063292,557,648,582,584
"587","pp25","pitloosheid",309,6.40522845803084,"heid",1.86,0,0,11,1.31050613197084,4,"correct",6.59987049921284,646,632,573,723
"588","pp25","summierheid",310,6.56244409369372,"heid",2.14,0,5.29831736654804,11,0.526588927497426,0,"incorrect",6.1463292576689,605,646,632,573
"589","pp25","kalkrijkheid",316,6.65544035036765,"heid",2.09,0,3.13549421592915,12,1.48187723101362,3,"incorrect",6.54534966033442,599,793,644,601
"590","pp25","onbelastheid",317,7.13329595489607,"heid",2.55,0,3.17805383034795,12,1.72894923152569,6,"incorrect",6.64378973314767,777,599,793,644
"591","pp25","kortafheid",326,6.20455776256869,"baseheid",2.36,0,5.86929691313377,10,1.62482689233404,1,"incorrect",6.00141487796115,569,504,570,680
"592","pp25","saprijkheid",333,6.19847871649231,"baseheid",1.95,0,0,11,1.51630236639884,2,"correct",6.3297209055227,510,491,575,650
"593","pp25","beuheid",337,6.50578406012823,"heid",1.73,0,5.06890420222023,7,0,0,"incorrect",6.17170059741091,590,762,512,492
"594","pp25","dementheid",343,6.26339826259162,"heid",3.23,0,3.8286413964891,10,0.741275220811803,0,"correct",6.42648845745769,539,479,729,652
"595","pp25","royaalheid",344,6.19440539110467,"baseheid",3.36,0,6.0913098820777,10,0.526588927497426,0,"correct",6.24610676548156,525,539,479,729
"596","pp28","enormheid",79,6.36302810354046,"heid",3,0,8.42463920980563,9,0.526588927497426,0,"correct",6.54534966033442,760,894,980,1182
"597","pp28","basaalheid",81,6.6682282484174,"baseheid",2.14,0,3.55534806148941,10,0,0,"correct",6.45362499889269,826,580,760,894
"598","pp28","markantheid",83,6.53233429222235,"heid",2.73,0,5.16478597392351,11,0,0,"correct",6.71295620067707,731,787,826,580
"599","pp28","ontroerdheid",89,6.58340922215876,"heid",3.32,0,5.54907608489522,12,0,1,"correct",6.38687931936265,649,538,599,689
"600","pp28","lobbigheid",92,6.5510803350434,"baseheid",1.82,0,0,10,0.741275220811803,3,"incorrect",6.72262979485545,650,624,723,649
"601","pp28","contentheid",95,6.87935580446044,"baseheid",2.5,0,4.49980967033027,11,0,1,"correct",6.31535800152233,872,962,700,650
"602","pp28","riantheid",96,7.0518556229559,"baseheid",2.36,0,4.53259949315326,9,0,0,"correct",6.26530121273771,972,872,962,700
"603","pp28","tembaarheid",111,6.61472560020376,"heid",3.73,0,0,11,1.02667222131998,0,"correct",6.71780469502369,642,601,1054,1041
"604","pp28","onattentheid",115,6.69208374250663,"heid",2.73,0,1.6094379124341,12,0,0,"correct",7.07496319796604,647,583,590,746
"605","pp28","bebrildheid",130,6.52356230614951,"baseheid",1.41,0,3.61091791264422,11,1.35850426878838,3,"incorrect",6.43615036836943,547,618,602,477
"606","pp28","aftandsheid",139,6.66185474054531,"heid",2.05,0,4.20469261939097,11,0,0,"correct",7.26542972325395,915,623,715,923
"607","pp28","geurloosheid",143,6.3750248198281,"heid",2.95,0,2.56494935746154,12,1.31050613197084,1,"correct",6.77078942390898,809,646,1037,782
"608","pp28","ovaalheid",157,6.31716468674728,"baseheid",2.23,0,5.86078622346587,9,0.526588927497426,1,"correct",6.3026189757449,707,632,551,751
"609","pp28","erkendheid",172,6.21460809842219,"baseheid",4.73,0,6.5191472879404,10,0,0,"correct",6.22059017009974,714,620,832,933
"610","pp28","coulantheid",174,6.4377516497364,"baseheid",2.5,0,1.79175946922805,11,0,1,"correct",6.5366915975913,602,500,714,620
"611","pp28","labielheid",196,6.20657592672493,"heid",3.23,0,4.38202663467388,10,0.526588927497426,0,"correct",6.56103066589657,548,575,842,681
"612","pp28","visrijkheid",200,6.26339826259162,"heid",2.18,0,3.04452243772342,11,1.72894923152569,4,"correct",6.59030104819669,650,677,562,496
"613","pp28","ondiepheid",206,6.24610676548156,"baseheid",2.77,0,5.66296048013595,10,1.57000245622518,1,"correct",6.29710931993394,754,974,736,595
"614","pp28","onwelheid",207,6.361302477573,"heid",2,0,3.97029191355212,9,1.7855468776495,1,"incorrect",6.58340922215876,516,754,974,736
"615","pp28","blusbaarheid",209,6.35957386867238,"baseheid",2.91,0,0,12,1.19470700912477,0,"correct",6.72383244082121,645,579,516,754
"616","pp28","tilbaarheid",215,7.05012252026906,"heid",3.18,0,0,11,1.24844221891489,1,"correct",6.95749737087695,568,591,587,589
"617","pp28","gammelheid",221,6.45676965557216,"baseheid",2.55,0,4.91265488573605,10,0,0,"correct",6.60258789218934,683,768,657,552
"618","pp28","koketheid",228,6.23441072571837,"heid",2,0,4.78749174278205,9,0.741275220811803,0,"correct",6.67708346124714,642,558,708,647
"619","pp28","ludiekheid",232,6.45990445437753,"baseheid",2.05,0,4.14313472639153,10,0,0,"correct",6.52356230614951,537,623,492,510
"620","pp28","pipsheid",242,6.45833828334479,"heid",1.86,0,3.3322045101752,8,0,0,"incorrect",6.38856140554563,543,480,561,603
"621","pp28","banaalheid",252,6.40522845803084,"heid",2.64,0,5.73979291217923,10,0.526588927497426,0,"correct",6.3750248198281,672,594,515,651
"622","pp28","bezweetheid",257,6.35262939631957,"heid",3.36,0,4.75359019110636,11,1.37230699238395,1,"correct",6.3135480462771,855,564,1088,617
"623","pp28","beschutheid",264,6.8134445995109,"heid",2.95,0,4.78749174278205,11,0.526588927497426,0,"incorrect",6.4723462945009,611,835,500,923
"624","pp28","antiekheid",271,6.4118182677099,"baseheid",2.23,0,6.74523634948436,10,0.869739858620314,2,"correct",6.28599809450886,573,549,579,554
"625","pp28","tactvolheid",274,6.41017488196617,"baseheid",2.55,0,4.75359019110636,11,1.24844221891489,1,"correct",6.33682573114644,712,557,609,573
"626","pp28","jofelheid",275,6.38856140554563,"heid",2.64,0,3.3322045101752,9,0,0,"correct",6.45362499889269,608,712,557,609
"627","pp28","pitloosheid",309,6.23244801655052,"baseheid",1.86,0,0,11,1.31050613197084,4,"correct",6.30809844150953,558,665,584,507
"628","pp28","summierheid",310,6.40025744530882,"baseheid",2.14,0,5.29831736654804,11,0.526588927497426,0,"correct",6.35088571671474,509,558,665,584
"629","pp28","kalkrijkheid",316,6.57368016696065,"baseheid",2.09,0,3.13549421592915,12,1.48187723101362,3,"correct",6.71174039505618,557,744,687,721
"630","pp28","onbelastheid",317,6.56385552653213,"baseheid",2.55,0,3.17805383034795,12,1.72894923152569,6,"correct",6.34738920965601,716,557,744,687
"631","pp28","kortafheid",326,6.29526600143965,"heid",2.36,0,5.86929691313377,10,1.62482689233404,1,"correct",6.62007320653036,580,794,584,620
"632","pp28","saprijkheid",333,6.61740297797448,"heid",1.95,0,0,11,1.51630236639884,2,"correct",6.67959918584438,545,577,605,575
"633","pp28","beuheid",337,6.64248680136726,"baseheid",1.73,0,5.06890420222023,7,0,0,"correct",6.3261494731551,604,537,498,748
"634","pp28","dementheid",343,6.36818718635049,"baseheid",3.23,0,3.8286413964891,10,0.741275220811803,0,"correct",6.22059017009974,598,722,641,560
"635","pp28","royaalheid",344,6.41345895716736,"heid",3.36,0,6.0913098820777,10,0.526588927497426,0,"correct",6.31896811374643,583,598,722,641
"636","pp3","koketheid",69,6.73101810048208,"baseheid",2,0,4.78749174278205,9,0.741275220811803,0,"correct",6.42648845745769,1047,1258,650,831
"637","pp3","bezweetheid",78,6.59714570188665,"baseheid",3.36,0,4.75359019110636,11,1.37230699238395,1,"correct",6.46302945692067,1079,1156,828,880
"638","pp3","ondiepheid",88,6.42486902390539,"heid",2.77,0,5.66296048013595,10,1.57000245622518,1,"correct",6.5792512120101,901,929,774,898
"639","pp3","royaalheid",97,6.67582322163485,"baseheid",3.36,0,6.0913098820777,10,0.526588927497426,0,"correct",6.56385552653213,1160,882,882,733
"640","pp3","antiekheid",101,6.57507584059962,"heid",2.23,0,6.74523634948436,10,0.869739858620314,2,"correct",6.56244409369372,642,966,971,793
"641","pp3","beschutheid",110,6.79794041297493,"baseheid",2.95,0,4.78749174278205,11,0.526588927497426,0,"correct",7.36391350140582,764,709,1012,1153
"642","pp3","gammelheid",119,6.48157712927643,"heid",2.55,0,4.91265488573605,10,0,0,"correct",6.95272864462487,1030,734,632,1018
"643","pp3","tactvolheid",131,7.23417717974985,"heid",2.55,0,4.75359019110636,11,1.24844221891489,1,"correct",6.80572255341699,1225,1049,1042,806
"644","pp3","onattentheid",143,6.84906628263346,"baseheid",2.73,0,1.6094379124341,12,0,0,"correct",7.11151211649616,670,604,608,610
"645","pp3","tembaarheid",144,6.6682282484174,"baseheid",3.73,0,0,11,1.02667222131998,0,"correct",6.55819780281227,943,670,604,608
"646","pp3","erkendheid",147,7.14361760270412,"heid",4.73,0,6.5191472879404,10,0,0,"incorrect",6.91968384984741,1135,677,787,943
"647","pp3","riantheid",165,6.54391184556479,"heid",2.36,0,4.53259949315326,9,0,0,"correct",6.73815249459596,650,786,1185,1043
"648","pp3","beuheid",169,6.54821910276237,"heid",1.73,0,5.06890420222023,7,0,0,"correct",6.9555926083963,827,1122,588,695
"649","pp3","dementheid",173,6.51619307604296,"heid",3.23,0,3.8286413964891,10,0.741275220811803,0,"incorrect",7.22037383672395,582,693,945,698
"650","pp3","kortafheid",179,6.95081476844258,"baseheid",2.36,0,5.86929691313377,10,1.62482689233404,1,"correct",6.41345895716736,1138,1016,836,1033
"651","pp3","blusbaarheid",189,7.028201432058,"heid",2.91,0,0,12,1.19470700912477,0,"incorrect",6.46925031679577,1019,608,959,767
"652","pp3","basaalheid",200,6.82437367004309,"heid",2.14,0,3.55534806148941,10,0,0,"incorrect",6.98841318199959,990,1218,741,683
"653","pp3","ludiekheid",238,6.48157712927643,"heid",2.05,0,4.14313472639153,10,0,0,"correct",7.10496544826984,974,673,722,645
"654","pp3","ovaalheid",248,6.39692965521615,"heid",2.23,0,5.86078622346587,9,0.526588927497426,1,"correct",6.71780469502369,1003,648,651,836
"655","pp3","visrijkheid",253,6.54678541076052,"baseheid",2.18,0,3.04452243772342,11,1.72894923152569,4,"correct",6.65286302935335,525,728,676,779
"656","pp3","labielheid",265,6.89365635460264,"baseheid",3.23,0,4.38202663467388,10,0.526588927497426,0,"correct",6.59304453414244,998,620,657,688
"657","pp3","pitloosheid",272,6.51174532964473,"heid",1.86,0,0,11,1.31050613197084,4,"correct",6.90875477931522,1044,643,687,682
"658","pp3","jofelheid",274,6.45362499889269,"baseheid",2.64,0,3.3322045101752,9,0,0,"incorrect",6.46925031679577,1025,673,1044,643
"659","pp3","kalkrijkheid",276,6.93731408122368,"heid",2.09,0,3.13549421592915,12,1.48187723101362,3,"incorrect",6.51174532964473,757,635,1025,673
"660","pp3","coulantheid",281,6.6052979209482,"heid",2.5,0,1.79175946922805,11,0,1,"incorrect",6.52502965784346,628,701,839,793
"661","pp3","ontroerdheid",282,6.68959926917897,"baseheid",3.32,0,5.54907608489522,12,0,1,"correct",6.55677835615804,739,628,701,839
"662","pp3","bebrildheid",303,6.91572344863131,"heid",1.41,0,3.61091791264422,11,1.35850426878838,3,"incorrect",6.42971947803914,881,673,807,786
"663","pp3","markantheid",319,7.3004728142678,"baseheid",2.73,0,5.16478597392351,11,0,0,"correct",6.55250788703459,701,839,663,681
"664","pp3","summierheid",320,6.81014245011514,"heid",2.14,0,5.29831736654804,11,0.526588927497426,0,"incorrect",6.4425401664682,1481,701,839,663
"665","pp3","enormheid",326,6.87109129461055,"baseheid",3,0,8.42463920980563,9,0.526588927497426,0,"correct",6.47543271670409,597,618,835,1033
"666","pp3","onwelheid",329,6.78332520060396,"baseheid",2,0,3.97029191355212,9,1.7855468776495,1,"correct",6.3261494731551,890,836,964,597
"667","pp3","tilbaarheid",331,6.28785856016178,"baseheid",3.18,0,0,11,1.24844221891489,1,"correct",6.11589212548303,605,883,890,836
"668","pp3","geurloosheid",332,6.38012253689976,"baseheid",2.95,0,2.56494935746154,12,1.31050613197084,1,"correct",6.28785856016178,538,605,883,890
"669","pp3","pipsheid",344,6.77992190747225,"baseheid",1.86,0,3.3322045101752,8,0,0,"correct",6.44888939414686,964,950,840,559
"670","pp3","aftandsheid",346,6.84268328223842,"baseheid",2.05,0,4.20469261939097,11,0,0,"correct",6.67203294546107,948,880,964,950
"671","pp4","geurloosheid",143,6.95654544315157,"heid",2.95,0,2.56494935746154,12,1.31050613197084,1,"correct",7.11882624906208,1057,663,1190,1296
"672","pp4","coulantheid",174,7.32909373624659,"baseheid",2.5,0,1.79175946922805,11,0,1,"correct",6.80239476332431,838,1722,923,886
"673","pp4","visrijkheid",200,7.42237370098682,"heid",2.18,0,3.04452243772342,11,1.72894923152569,4,"correct",7.3356339819272,975,1599,728,1750
"674","pp4","ondiepheid",206,7.07834157955767,"baseheid",2.77,0,5.66296048013595,10,1.57000245622518,1,"correct",6.61069604471776,1335,1173,945,1497
"675","pp4","blusbaarheid",209,6.94022246911964,"baseheid",2.91,0,0,12,1.19470700912477,0,"correct",6.9782137426307,987,1750,1186,1335
"676","pp4","tilbaarheid",215,6.87523208727658,"heid",3.18,0,0,11,1.24844221891489,1,"correct",6.75925527066369,1559,943,1660,979
"677","pp4","gammelheid",221,7.04141166379481,"baseheid",2.55,0,4.91265488573605,10,0,0,"correct",6.97354301952014,1418,742,1008,1256
"678","pp4","beschutheid",264,7.44366368311559,"heid",2.95,0,4.78749174278205,11,0.526588927497426,0,"correct",7.06219163228656,655,1612,895,986
"679","pp4","tactvolheid",274,7.20042489294496,"baseheid",2.55,0,4.75359019110636,11,1.24844221891489,1,"correct",7.00124562206948,963,1750,1750,1048
"680","pp4","jofelheid",275,7.2868764117507,"heid",2.64,0,3.3322045101752,9,0,0,"incorrect",7.46737106691756,1340,963,1750,1750
"681","pp4","pitloosheid",309,7.38212436573751,"baseheid",1.86,0,0,11,1.31050613197084,4,"correct",7.15773548424991,762,958,905,918
"682","pp4","kalkrijkheid",316,6.97914527506881,"baseheid",2.09,0,3.13549421592915,12,1.48187723101362,3,"correct",6.8501261661455,838,1188,1190,1251
"683","pp4","onbelastheid",317,7.44132038971762,"baseheid",2.55,0,3.17805383034795,12,1.72894923152569,6,"correct",6.98007594056176,1074,838,1188,1190
"684","pp4","saprijkheid",333,6.8373328146856,"heid",1.95,0,0,11,1.51630236639884,2,"correct",7.03878354138854,861,984,980,1145
"685","pp4","royaalheid",344,7.09837563859079,"heid",3.36,0,6.0913098820777,10,0.526588927497426,0,"correct",7.09589322109753,1727,744,838,1171
"686","pp5","riantheid",68,6.97447891102505,"baseheid",2.36,0,4.53259949315326,9,0,0,"correct",6.65672652417839,693,1008,756,930
"687","pp5","ovaalheid",81,6.76157276880406,"baseheid",2.23,0,5.86078622346587,9,0.526588927497426,1,"correct",6.53087762772588,622,895,651,775
"688","pp5","aftandsheid",88,6.63987583382654,"heid",2.05,0,4.20469261939097,11,0,0,"incorrect",6.60258789218934,891,863,949,888
"689","pp5","beschutheid",101,6.8265452235566,"heid",2.95,0,4.78749174278205,11,0.526588927497426,0,"correct",6.82110747225646,553,825,1038,832
"690","pp5","dementheid",180,7.04664727784876,"baseheid",3.23,0,3.8286413964891,10,0.741275220811803,0,"correct",6.8501261661455,1000,549,540,779
"691","pp5","royaalheid",192,6.78558764500793,"heid",3.36,0,6.0913098820777,10,0.526588927497426,0,"incorrect",6.84800527457636,1226,471,910,657
"692","pp6","koketheid",69,6.48768401848461,"heid",2,0,4.78749174278205,9,0.741275220811803,0,"correct",6.74993119378857,555,763,581,682
"693","pp6","bezweetheid",78,6.34035930372775,"heid",3.36,0,4.75359019110636,11,1.37230699238395,1,"correct",6.3578422665081,499,476,739,655
"694","pp6","ondiepheid",88,6.26720054854136,"baseheid",2.77,0,5.66296048013595,10,1.57000245622518,1,"correct",6.31896811374643,747,745,701,725
"695","pp6","royaalheid",97,6.22851100359118,"heid",3.36,0,6.0913098820777,10,0.526588927497426,0,"correct",6.36302810354046,976,631,719,542
"696","pp6","antiekheid",101,6.27287700654617,"baseheid",2.23,0,6.74523634948436,10,0.869739858620314,2,"correct",6.21860011969173,554,506,607,507
"697","pp6","beschutheid",110,6.29156913955832,"heid",2.95,0,4.78749174278205,11,0.526588927497426,0,"correct",6.47389069635227,447,512,470,797
"698","pp6","gammelheid",119,6.59304453414244,"baseheid",2.55,0,4.91265488573605,10,0,0,"incorrect",6.31535800152233,687,823,801,710
"699","pp6","tactvolheid",131,6.37331978957701,"baseheid",2.55,0,4.75359019110636,11,1.24844221891489,1,"correct",6.35957386867238,654,604,640,607
"700","pp6","onattentheid",143,6.62671774924902,"heid",2.73,0,1.6094379124341,12,0,0,"correct",6.74405918631135,694,640,593,575
"701","pp6","tembaarheid",144,6.35437004079735,"heid",3.73,0,0,11,1.02667222131998,0,"correct",6.71538338633468,755,694,640,593
"702","pp6","contentheid",146,6.51619307604296,"baseheid",2.5,0,4.49980967033027,11,0,1,"correct",6.68085467879022,561,575,755,694
"703","pp6","erkendheid",147,6.289715570909,"baseheid",4.73,0,6.5191472879404,10,0,0,"correct",6.1527326947041,676,561,575,755
"704","pp6","riantheid",165,6.34388043412633,"baseheid",2.36,0,4.53259949315326,9,0,0,"correct",6.54534966033442,591,816,762,617
"705","pp6","beuheid",169,6.3919171133926,"baseheid",1.73,0,5.06890420222023,7,0,0,"correct",6.40357419793482,573,1049,545,569
"706","pp6","dementheid",173,6.3135480462771,"baseheid",3.23,0,3.8286413964891,10,0.741275220811803,0,"correct",6.35437004079735,530,566,563,597
"707","pp6","banaalheid",176,6.383506634884,"heid",2.64,0,5.73979291217923,10,0.526588927497426,0,"correct",6.77878489768518,839,522,552,530
"708","pp6","kortafheid",179,6.3456363608286,"heid",2.36,0,5.86929691313377,10,1.62482689233404,1,"correct",6.35437004079735,951,515,592,839
"709","pp6","blusbaarheid",189,6.4425401664682,"baseheid",2.91,0,0,12,1.19470700912477,0,"correct",6.49375383985169,710,478,519,630
"710","pp6","basaalheid",200,6.31716468674728,"baseheid",2.14,0,3.55534806148941,10,0,0,"correct",6.56526497003536,710,577,512,902
"711","pp6","ludiekheid",238,6.2841341610708,"baseheid",2.05,0,4.14313472639153,10,0,0,"correct",6.3578422665081,667,554,566,903
"712","pp6","ovaalheid",248,6.21460809842219,"baseheid",2.23,0,5.86078622346587,9,0.526588927497426,1,"correct",6.36302810354046,554,624,657,574
"713","pp6","visrijkheid",253,6.28785856016178,"heid",2.18,0,3.04452243772342,11,1.72894923152569,4,"correct",6.44730586254121,695,578,598,673
"714","pp6","lobbigheid",260,6.6052979209482,"baseheid",1.82,0,0,10,0.741275220811803,3,"incorrect",6.15697898558556,560,863,668,548
"715","pp6","labielheid",265,6.34035930372775,"heid",3.23,0,4.38202663467388,10,0.526588927497426,0,"correct",6.65929391968364,573,787,585,610
"716","pp6","onbelastheid",266,6.35088571671474,"baseheid",2.55,0,3.17805383034795,12,1.72894923152569,6,"correct",6.44730586254121,567,573,787,585
"717","pp6","pitloosheid",272,6.26530121273771,"baseheid",1.86,0,0,11,1.31050613197084,4,"correct",6.67329796776765,878,917,701,516
"718","pp6","jofelheid",274,6.2841341610708,"heid",2.64,0,3.3322045101752,9,0,0,"correct",6.80572255341699,576,526,878,917
"719","pp6","kalkrijkheid",276,6.2841341610708,"baseheid",2.09,0,3.13549421592915,12,1.48187723101362,3,"correct",6.31716468674728,656,536,576,526
"720","pp6","coulantheid",281,6.3026189757449,"baseheid",2.5,0,1.79175946922805,11,0,1,"correct",6.82871207164168,701,702,658,774
"721","pp6","ontroerdheid",282,6.21860011969173,"heid",3.32,0,5.54907608489522,12,0,1,"correct",6.32256523992728,546,701,702,658
"722","pp6","bebrildheid",303,6.4118182677099,"baseheid",1.41,0,3.61091791264422,11,1.35850426878838,3,"correct",6.6682282484174,571,583,530,544
"723","pp6","markantheid",319,6.33150184989369,"heid",2.73,0,5.16478597392351,11,0,0,"correct",6.55393340402581,769,600,643,461
"724","pp6","summierheid",320,6.56244409369372,"baseheid",2.14,0,5.29831736654804,11,0.526588927497426,0,"correct",6.55250788703459,562,769,600,643
"725","pp6","enormheid",326,6.21860011969173,"heid",3,0,8.42463920980563,9,0.526588927497426,0,"correct",6.7202201551353,803,904,568,650
"726","pp6","onwelheid",329,6.58202513889283,"heid",2,0,3.97029191355212,9,1.7855468776495,1,"correct",6.95081476844258,626,612,502,803
