"","Subject","Word","Trial","RT","Condition","Rating","Frequency","BaseFrequency","LengthInLetters","FamilySize","NumberOfSynsets","ResponseToPrime","RTtoPrime"
"1","pp1","basaalheid",81,6.69332366826995,"heid",2.14,0,3.55534806148941,10,0,0,"correct",6.88448665204278
"2","pp1","markantheid",83,6.80903930604298,"baseheid",2.73,0,5.16478597392351,11,0,0,"correct",6.55819780281227
"3","pp1","ontroerdheid",89,6.50876913697168,"baseheid",3.32,0,5.54907608489522,12,0,1,"correct",6.65157187358973
"4","pp1","contentheid",95,6.57646956904822,"heid",2.5,0,4.49980967033027,11,0,1,"correct",6.96034772910131
"5","pp1","riantheid",96,6.85751406254539,"heid",2.36,0,4.53259949315326,9,0,0,"correct",6.8265452235566
"6","pp1","tembaarheid",111,6.3491389913798,"baseheid",3.73,0,0,11,1.02667222131998,0,"incorrect",6.82437367004309
"7","pp1","onattentheid",115,6.69332366826995,"baseheid",2.73,0,1.6094379124341,12,0,0,"correct",6.84054652928869
"8","pp1","bebrildheid",130,7.16780918431644,"heid",1.41,0,3.61091791264422,11,1.35850426878838,3,"incorrect",7.44249272279444
"9","pp1","geurloosheid",143,6.57646956904822,"baseheid",2.95,0,2.56494935746154,12,1.31050613197084,1,"correct",6.26149168432104
"10","pp1","ovaalheid",157,6.98100574072173,"heid",2.23,0,5.86078622346587,9,0.526588927497426,1,"correct",6.55393340402581
"11","pp1","erkendheid",172,6.3818160174061,"heid",4.73,0,6.5191472879404,10,0,0,"correct",6.383506634884
"12","pp1","coulantheid",174,6.67329796776765,"heid",2.5,0,1.79175946922805,11,0,1,"correct",7.20489251020467
"13","pp1","labielheid",196,6.70808408385307,"baseheid",3.23,0,4.38202663467388,10,0.526588927497426,0,"correct",6.83195356556585
"14","pp1","visrijkheid",200,6.53813982376767,"baseheid",2.18,0,3.04452243772342,11,1.72894923152569,4,"correct",6.62007320653036
"15","pp1","ondiepheid",206,6.32076829425058,"heid",2.77,0,5.66296048013595,10,1.57000245622518,1,"incorrect",6.96696713861398
"16","pp1","onwelheid",207,6.99759598298193,"baseheid",2,0,3.97029191355212,9,1.7855468776495,1,"correct",6.57228254269401
"17","pp1","blusbaarheid",209,6.73578001424233,"heid",2.91,0,0,12,1.19470700912477,0,"correct",7.06390396147207
"18","pp1","tilbaarheid",215,6.54678541076052,"baseheid",3.18,0,0,11,1.24844221891489,1,"correct",6.73340189183736
"19","pp1","gammelheid",221,6.54534966033442,"heid",2.55,0,4.91265488573605,10,0,0,"correct",6.82437367004309
"20","pp1","koketheid",228,6.85329909318608,"baseheid",2,0,4.78749174278205,9,0.741275220811803,0,"correct",7.32778053842163
"21","pp1","ludiekheid",232,6.8001700683022,"heid",2.05,0,4.14313472639153,10,0,0,"correct",7.03966034986208
"22","pp1","banaalheid",252,6.95272864462487,"baseheid",2.64,0,5.73979291217923,10,0.526588927497426,0,"correct",6.40522845803084
"23","pp1","bezweetheid",257,6.44730586254121,"baseheid",3.36,0,4.75359019110636,11,1.37230699238395,1,"correct",6.66185474054531
"24","pp1","beschutheid",264,6.57088296233958,"baseheid",2.95,0,4.78749174278205,11,0.526588927497426,0,"correct",6.41999492814714
"25","pp1","antiekheid",271,6.98007594056176,"heid",2.23,0,6.74523634948436,10,0.869739858620314,2,"correct",6.65544035036765
"26","pp1","pitloosheid",309,6.69084227741856,"heid",1.86,0,0,11,1.31050613197084,4,"correct",7.14519613499717
"27","pp1","kalkrijkheid",316,7.07496319796604,"heid",2.09,0,3.13549421592915,12,1.48187723101362,3,"correct",6.80572255341699
"28","pp1","onbelastheid",317,6.57646956904822,"heid",2.55,0,3.17805383034795,12,1.72894923152569,6,"incorrect",7.46737106691756
"29","pp1","beuheid",337,7.11476944836646,"heid",1.73,0,5.06890420222023,7,0,0,"correct",6.84587987526405
"30","pp1","dementheid",343,6.48463523563525,"heid",3.23,0,3.8286413964891,10,0.741275220811803,0,"correct",6.63987583382654
"31","pp1","royaalheid",344,6.69084227741856,"baseheid",3.36,0,6.0913098820777,10,0.526588927497426,0,"correct",6.57228254269401
"32","pp10","enormheid",79,6.17378610390194,"heid",3,0,8.42463920980563,9,0.526588927497426,0,"correct",6.24804287450843
"33","pp10","markantheid",83,6.14418563412565,"heid",2.73,0,5.16478597392351,11,0,0,"correct",6.63068338564237
"34","pp10","ontroerdheid",89,6.08449941307517,"heid",3.32,0,5.54907608489522,12,0,1,"correct",6.16541785423142
"35","pp10","contentheid",95,6.60934924316738,"baseheid",2.5,0,4.49980967033027,11,0,1,"correct",6.61873898351722
"36","pp10","riantheid",96,6.19644412779452,"baseheid",2.36,0,4.53259949315326,9,0,0,"correct",6.52649485957079
"37","pp10","tembaarheid",111,6.44094654063292,"heid",3.73,0,0,11,1.02667222131998,0,"incorrect",6.64118216974059
"38","pp10","onattentheid",115,6.69084227741856,"heid",2.73,0,1.6094379124341,12,0,0,"correct",6.80682936039218
"39","pp10","bebrildheid",130,6.46146817635372,"baseheid",1.41,0,3.61091791264422,11,1.35850426878838,3,"incorrect",6.30809844150953
"40","pp10","aftandsheid",139,6.97914527506881,"heid",2.05,0,4.20469261939097,11,0,0,"incorrect",6.76619171466035
"41","pp10","geurloosheid",143,6.30444880242198,"heid",2.95,0,2.56494935746154,12,1.31050613197084,1,"correct",6.81454289725996
"42","pp10","ovaalheid",157,6.42162226780652,"baseheid",2.23,0,5.86078622346587,9,0.526588927497426,1,"incorrect",6.19031540585315
"43","pp10","erkendheid",172,6.18826412308259,"baseheid",4.73,0,6.5191472879404,10,0,0,"correct",6.29526600143965
"44","pp10","coulantheid",174,6.50279004591562,"baseheid",2.5,0,1.79175946922805,11,0,1,"correct",6.59441345974978
"45","pp10","tilbaarheid",215,6.96602418710611,"heid",3.18,0,0,11,1.24844221891489,1,"correct",6.4831073514572
"46","pp10","gammelheid",221,6.98286275146894,"baseheid",2.55,0,4.91265488573605,10,0,0,"incorrect",6.33327962813969
"47","pp10","pipsheid",242,6.86589107488344,"heid",1.86,0,3.3322045101752,8,0,0,"incorrect",6.3985949345352
"48","pp10","banaalheid",252,6.30444880242198,"heid",2.64,0,5.73979291217923,10,0.526588927497426,0,"correct",7.05617528410041
"49","pp10","bezweetheid",257,6.18826412308259,"heid",3.36,0,4.75359019110636,11,1.37230699238395,1,"incorrect",7.10332206252611
"50","pp10","beschutheid",264,6.50428817353665,"heid",2.95,0,4.78749174278205,11,0.526588927497426,0,"incorrect",6.15060276844628
"51","pp10","pitloosheid",309,6.19644412779452,"baseheid",1.86,0,0,11,1.31050613197084,4,"correct",6.30444880242198
"52","pp10","kortafheid",326,6.3297209055227,"heid",2.36,0,5.86929691313377,10,1.62482689233404,1,"correct",6.70196036600254
"53","pp10","dementheid",343,6.67708346124714,"baseheid",3.23,0,3.8286413964891,10,0.741275220811803,0,"correct",6.34388043412633
"54","pp10","royaalheid",344,6.50578406012823,"heid",3.36,0,6.0913098820777,10,0.526588927497426,0,"correct",6.4118182677099
"55","pp11","riantheid",68,6.40687998606931,"baseheid",2.36,0,4.53259949315326,9,0,0,"correct",6.2803958389602
"56","pp11","ovaalheid",81,6.43133108193348,"baseheid",2.23,0,5.86078622346587,9,0.526588927497426,1,"correct",6.42648845745769
"57","pp11","aftandsheid",88,7.2086003379602,"heid",2.05,0,4.20469261939097,11,0,0,"correct",7.04664727784876
"58","pp11","tactvolheid",103,6.59304453414244,"baseheid",2.55,0,4.75359019110636,11,1.24844221891489,1,"correct",6.57786135772105
"59","pp11","tembaarheid",105,6.3919171133926,"heid",3.73,0,0,11,1.02667222131998,0,"correct",6.62007320653036
"60","pp11","summierheid",130,6.87729607149743,"baseheid",2.14,0,5.29831736654804,11,0.526588927497426,0,"correct",6.44888939414686
"61","pp11","tilbaarheid",131,6.89467003943348,"heid",3.18,0,0,11,1.24844221891489,1,"correct",6.96413561241824
"62","pp11","pitloosheid",135,6.4085287910595,"baseheid",1.86,0,0,11,1.31050613197084,4,"correct",6.41017488196617
"63","pp11","labielheid",163,6.43454651878745,"heid",3.23,0,4.38202663467388,10,0.526588927497426,0,"correct",6.46146817635372
"64","pp11","contentheid",164,6.22059017009974,"baseheid",2.5,0,4.49980967033027,11,0,1,"correct",6.29156913955832
"65","pp11","saprijkheid",178,6.91671502035361,"heid",1.95,0,0,11,1.51630236639884,2,"incorrect",7.46737106691756
"66","pp11","dementheid",180,6.34388043412633,"baseheid",3.23,0,3.8286413964891,10,0.741275220811803,0,"correct",6.59578051396131
"67","pp11","enormheid",181,6.58892647753352,"heid",3,0,8.42463920980563,9,0.526588927497426,0,"incorrect",7.0184017990692
"68","pp11","royaalheid",192,6.25958146406492,"heid",3.36,0,6.0913098820777,10,0.526588927497426,0,"correct",6.33150184989369
"69","pp11","jofelheid",196,6.31716468674728,"heid",2.64,0,3.3322045101752,9,0,0,"correct",7.13568734702814
"70","pp11","blusbaarheid",206,7.10578612948127,"baseheid",2.91,0,0,12,1.19470700912477,0,"correct",6.40025744530882
"71","pp11","basaalheid",214,6.56667242980324,"baseheid",2.14,0,3.55534806148941,10,0,0,"correct",6.40191719672719
"72","pp11","kalkrijkheid",222,6.63463335786169,"baseheid",2.09,0,3.13549421592915,12,1.48187723101362,3,"correct",6.4281052726846
"73","pp11","kortafheid",224,6.33150184989369,"heid",2.36,0,5.86929691313377,10,1.62482689233404,1,"correct",6.57368016696065
"74","pp11","ontroerdheid",243,6.47389069635227,"heid",3.32,0,5.54907608489522,12,0,1,"correct",6.54391184556479
"75","pp11","banaalheid",250,6.61338421837956,"heid",2.64,0,5.73979291217923,10,0.526588927497426,0,"correct",6.8265452235566
"76","pp11","erkendheid",253,6.51174532964473,"baseheid",4.73,0,6.5191472879404,10,0,0,"correct",6.12029741895095
"77","pp11","coulantheid",256,6.52502965784346,"baseheid",2.5,0,1.79175946922805,11,0,1,"correct",6.21860011969173
"78","pp11","geurloosheid",261,6.25190388316589,"heid",2.95,0,2.56494935746154,12,1.31050613197084,1,"correct",6.4085287910595
"79","pp11","ondiepheid",278,6.10702288774225,"baseheid",2.77,0,5.66296048013595,10,1.57000245622518,1,"correct",6.3297209055227
"80","pp11","onwelheid",320,6.67329796776765,"heid",2,0,3.97029191355212,9,1.7855468776495,1,"correct",7.07918439460967
"81","pp11","gammelheid",338,6.71659477352098,"baseheid",2.55,0,4.91265488573605,10,0,0,"correct",6.36475075685191
"82","pp12","ondiepheid",88,6.54391184556479,"baseheid",2.77,0,5.66296048013595,10,1.57000245622518,1,"correct",6.40687998606931
"83","pp12","royaalheid",97,6.60934924316738,"heid",3.36,0,6.0913098820777,10,0.526588927497426,0,"correct",6.71417052990947
"84","pp12","antiekheid",101,6.87626461189077,"baseheid",2.23,0,6.74523634948436,10,0.869739858620314,2,"correct",6.43294009273918
"85","pp12","beschutheid",110,6.94312242281943,"heid",2.95,0,4.78749174278205,11,0.526588927497426,0,"incorrect",7.05875815251866
"86","pp12","gammelheid",119,6.92657703322272,"baseheid",2.55,0,4.91265488573605,10,0,0,"correct",6.75460409948796
"87","pp12","onattentheid",143,6.70563909486,"heid",2.73,0,1.6094379124341,12,0,0,"correct",6.92165818415113
"88","pp12","tembaarheid",144,6.76272950693188,"heid",3.73,0,0,11,1.02667222131998,0,"correct",7.06731984865348
"89","pp12","erkendheid",147,6.45833828334479,"baseheid",4.73,0,6.5191472879404,10,0,0,"correct",6.46146817635372
"90","pp12","riantheid",165,6.77992190747225,"baseheid",2.36,0,4.53259949315326,9,0,0,"correct",7.0335064842877
"91","pp12","kortafheid",179,6.87109129461055,"heid",2.36,0,5.86929691313377,10,1.62482689233404,1,"correct",6.7428806357919
"92","pp12","labielheid",265,6.92165818415113,"heid",3.23,0,4.38202663467388,10,0.526588927497426,0,"correct",6.84587987526405
"93","pp12","ontroerdheid",282,6.67329796776765,"heid",3.32,0,5.54907608489522,12,0,1,"correct",6.8112443786013
"94","pp13","enormheid",79,6.81563999007433,"baseheid",3,0,8.42463920980563,9,0.526588927497426,0,"correct",6.38519439899773
"95","pp13","markantheid",83,6.99393297522319,"baseheid",2.73,0,5.16478597392351,11,0,0,"correct",6.70196036600254
"96","pp13","ontroerdheid",89,6.4150969591716,"baseheid",3.32,0,5.54907608489522,12,0,1,"correct",6.71538338633468
"97","pp13","lobbigheid",92,6.85118492749374,"heid",1.82,0,0,10,0.741275220811803,3,"correct",6.67582322163485
"98","pp13","contentheid",95,6.69579891705849,"heid",2.5,0,4.49980967033027,11,0,1,"correct",7.45182223652793
"99","pp13","riantheid",96,6.78558764500793,"heid",2.36,0,4.53259949315326,9,0,0,"correct",6.62007320653036
"100","pp13","tembaarheid",111,7.00033446027523,"baseheid",3.73,0,0,11,1.02667222131998,0,"correct",7.18538701558042
"101","pp13","onattentheid",115,6.67834211465433,"baseheid",2.73,0,1.6094379124341,12,0,0,"correct",6.72623340235875
"102","pp13","bebrildheid",130,6.86380339145295,"heid",1.41,0,3.61091791264422,11,1.35850426878838,3,"incorrect",6.55677835615804
"103","pp13","geurloosheid",143,6.75343791859778,"baseheid",2.95,0,2.56494935746154,12,1.31050613197084,1,"correct",6.46146817635372
"104","pp13","erkendheid",172,7.20117088328168,"heid",4.73,0,6.5191472879404,10,0,0,"correct",6.87005341179813
"105","pp13","labielheid",196,6.53378883793334,"baseheid",3.23,0,4.38202663467388,10,0.526588927497426,0,"incorrect",7.46737106691756
"106","pp13","visrijkheid",200,6.83410873881384,"baseheid",2.18,0,3.04452243772342,11,1.72894923152569,4,"correct",6.42162226780652
"107","pp13","ondiepheid",206,7.33302301438648,"heid",2.77,0,5.66296048013595,10,1.57000245622518,1,"correct",6.50578406012823
"108","pp13","onwelheid",207,6.8627579130514,"baseheid",2,0,3.97029191355212,9,1.7855468776495,1,"correct",6.66949808985788
"109","pp13","blusbaarheid",209,7.0825485693553,"heid",2.91,0,0,12,1.19470700912477,0,"correct",7.35436233042148
"110","pp13","tilbaarheid",215,7.03878354138854,"baseheid",3.18,0,0,11,1.24844221891489,1,"correct",6.34035930372775
"111","pp13","koketheid",228,6.85224256905188,"baseheid",2,0,4.78749174278205,9,0.741275220811803,0,"incorrect",6.63987583382654
"112","pp13","ludiekheid",232,6.72262979485545,"heid",2.05,0,4.14313472639153,10,0,0,"incorrect",6.3135480462771
"113","pp13","pipsheid",242,6.5694814204143,"baseheid",1.86,0,3.3322045101752,8,0,0,"correct",6.53813982376767
"114","pp13","banaalheid",252,6.67834211465433,"baseheid",2.64,0,5.73979291217923,10,0.526588927497426,0,"correct",6.88243747099785
"115","pp13","bezweetheid",257,6.9027427371586,"baseheid",3.36,0,4.75359019110636,11,1.37230699238395,1,"correct",6.33327962813969
"116","pp13","beschutheid",264,6.95368421087054,"baseheid",2.95,0,4.78749174278205,11,0.526588927497426,0,"incorrect",6.39526159811545
"117","pp13","tactvolheid",274,6.36818718635049,"heid",2.55,0,4.75359019110636,11,1.24844221891489,1,"correct",6.80128303447162
"118","pp13","jofelheid",275,6.42162226780652,"baseheid",2.64,0,3.3322045101752,9,0,0,"correct",6.4707995037826
"119","pp13","pitloosheid",309,6.41836493593621,"heid",1.86,0,0,11,1.31050613197084,4,"correct",6.50128967054039
"120","pp13","onbelastheid",317,6.57228254269401,"heid",2.55,0,3.17805383034795,12,1.72894923152569,6,"correct",7.07326971745971
"121","pp13","saprijkheid",333,7.10496544826984,"baseheid",1.95,0,0,11,1.51630236639884,2,"correct",7.0992017435531
"122","pp13","beuheid",337,6.79570577517351,"heid",1.73,0,5.06890420222023,7,0,0,"incorrect",6.30627528694802
"123","pp13","dementheid",343,6.77308037565554,"heid",3.23,0,3.8286413964891,10,0.741275220811803,0,"incorrect",6.24416690066374
"124","pp13","royaalheid",344,6.44730586254121,"baseheid",3.36,0,6.0913098820777,10,0.526588927497426,0,"correct",6.42162226780652
"125","pp14","riantheid",68,6.61069604471776,"heid",2.36,0,4.53259949315326,9,0,0,"incorrect",6.88448665204278
"126","pp14","beuheid",73,6.24610676548156,"heid",1.73,0,5.06890420222023,7,0,0,"correct",7.05012252026906
"127","pp14","ovaalheid",81,6.38519439899773,"heid",2.23,0,5.86078622346587,9,0.526588927497426,1,"correct",7.00124562206948
"128","pp14","aftandsheid",88,6.31716468674728,"baseheid",2.05,0,4.20469261939097,11,0,0,"correct",6.4377516497364
"129","pp14","beschutheid",101,6.22455842927536,"baseheid",2.95,0,4.78749174278205,11,0.526588927497426,0,"correct",6.25382881157547
"130","pp14","tactvolheid",103,6.19847871649231,"heid",2.55,0,4.75359019110636,11,1.24844221891489,1,"correct",6.69208374250663
"131","pp14","tembaarheid",105,6.21260609575152,"baseheid",3.73,0,0,11,1.02667222131998,0,"correct",6.4393503711001
"132","pp14","summierheid",130,6.61472560020376,"heid",2.14,0,5.29831736654804,11,0.526588927497426,0,"correct",6.94215670569947
"133","pp14","tilbaarheid",131,6.88653164253051,"baseheid",3.18,0,0,11,1.24844221891489,1,"correct",6.49526555593701
"134","pp14","pitloosheid",135,6.45519856334012,"heid",1.86,0,0,11,1.31050613197084,4,"correct",6.64248680136726
"135","pp14","labielheid",163,6.33859407820318,"baseheid",3.23,0,4.38202663467388,10,0.526588927497426,0,"correct",6.3026189757449
"136","pp14","contentheid",164,6.16961073249146,"heid",2.5,0,4.49980967033027,11,0,1,"correct",6.34212141872115
"137","pp14","dementheid",180,6.25382881157547,"heid",3.23,0,3.8286413964891,10,0.741275220811803,0,"correct",6.74758652682932
"138","pp14","enormheid",181,6.38519439899773,"baseheid",3,0,8.42463920980563,9,0.526588927497426,0,"correct",6.26530121273771
"139","pp14","bebrildheid",185,6.71052310945243,"heid",1.41,0,3.61091791264422,11,1.35850426878838,3,"incorrect",7.09672137849476
"140","pp14","royaalheid",192,6.45362499889269,"baseheid",3.36,0,6.0913098820777,10,0.526588927497426,0,"correct",6.23832462503951
"141","pp14","jofelheid",196,6.60934924316738,"baseheid",2.64,0,3.3322045101752,9,0,0,"correct",6.33505425149806
"142","pp14","blusbaarheid",206,6.49828214947643,"heid",2.91,0,0,12,1.19470700912477,0,"correct",6.62539236800796
"143","pp14","basaalheid",214,6.06842558824411,"heid",2.14,0,3.55534806148941,10,0,0,"correct",6.5424719605068
"144","pp14","kalkrijkheid",222,6.19031540585315,"heid",2.09,0,3.13549421592915,12,1.48187723101362,3,"correct",6.56103066589657
"145","pp14","kortafheid",224,6.21260609575152,"baseheid",2.36,0,5.86929691313377,10,1.62482689233404,1,"correct",6.27664348934164
"146","pp14","ontroerdheid",243,6.25958146406492,"baseheid",3.32,0,5.54907608489522,12,0,1,"correct",6.20455776256869
"147","pp14","lobbigheid",249,6.45362499889269,"heid",1.82,0,0,10,0.741275220811803,3,"incorrect",6.38856140554563
"148","pp14","banaalheid",250,6.42162226780652,"baseheid",2.64,0,5.73979291217923,10,0.526588927497426,0,"correct",6.16541785423142
"149","pp14","erkendheid",253,6.25766758788264,"heid",4.73,0,6.5191472879404,10,0,0,"correct",6.33859407820318
"150","pp14","coulantheid",256,6.33150184989369,"heid",2.5,0,1.79175946922805,11,0,1,"correct",6.5366915975913
"151","pp14","geurloosheid",261,6.60800062529609,"baseheid",2.95,0,2.56494935746154,12,1.31050613197084,1,"correct",6.35957386867238
"152","pp14","antiekheid",271,6.30078579466324,"heid",2.23,0,6.74523634948436,10,0.869739858620314,2,"correct",6.35957386867238
"153","pp14","ludiekheid",273,6.5792512120101,"heid",2.05,0,4.14313472639153,10,0,0,"incorrect",6.33505425149806
"154","pp14","ondiepheid",278,6.17378610390194,"heid",2.77,0,5.66296048013595,10,1.57000245622518,1,"correct",6.38856140554563
"155","pp14","markantheid",279,6.2841341610708,"baseheid",2.73,0,5.16478597392351,11,0,0,"correct",6.25958146406492
"156","pp14","pipsheid",285,6.29341927884648,"baseheid",1.86,0,3.3322045101752,8,0,0,"incorrect",6.6945620585211
"157","pp14","bezweetheid",297,6.23048144757848,"baseheid",3.36,0,4.75359019110636,11,1.37230699238395,1,"correct",6.13339804299665
"158","pp14","onbelastheid",303,6.4831073514572,"heid",2.55,0,3.17805383034795,12,1.72894923152569,6,"correct",6.88141130364254
"159","pp14","koketheid",307,6.22653666928747,"baseheid",2,0,4.78749174278205,9,0.741275220811803,0,"correct",6.97728134163075
"160","pp14","onattentheid",310,6.37331978957701,"baseheid",2.73,0,1.6094379124341,12,0,0,"correct",6.67582322163485
"161","pp14","onwelheid",320,6.23048144757848,"baseheid",2,0,3.97029191355212,9,1.7855468776495,1,"correct",6.289715570909
"162","pp14","visrijkheid",336,6.26149168432104,"baseheid",2.18,0,3.04452243772342,11,1.72894923152569,4,"correct",6.11589212548303
"163","pp14","gammelheid",338,6.20859002609663,"heid",2.55,0,4.91265488573605,10,0,0,"correct",6.75460409948796
"164","pp15","koketheid",69,6.46458830368996,"baseheid",2,0,4.78749174278205,9,0.741275220811803,0,"correct",6.53378883793334
"165","pp15","bezweetheid",78,6.68959926917897,"baseheid",3.36,0,4.75359019110636,11,1.37230699238395,1,"correct",6.64509096950564
"166","pp15","ondiepheid",88,6.42648845745769,"heid",2.77,0,5.66296048013595,10,1.57000245622518,1,"correct",6.35610766069589
"167","pp15","royaalheid",97,6.39526159811545,"baseheid",3.36,0,6.0913098820777,10,0.526588927497426,0,"correct",6.46925031679577
"168","pp15","antiekheid",101,6.76041469108343,"heid",2.23,0,6.74523634948436,10,0.869739858620314,2,"correct",6.63725803128446
"169","pp15","beschutheid",110,6.75460409948796,"baseheid",2.95,0,4.78749174278205,11,0.526588927497426,0,"incorrect",6.48004456192665
"170","pp15","gammelheid",119,6.77764659363512,"heid",2.55,0,4.91265488573605,10,0,0,"correct",6.65672652417839
"171","pp15","tactvolheid",131,6.45362499889269,"heid",2.55,0,4.75359019110636,11,1.24844221891489,1,"correct",6.53233429222235
"172","pp15","onattentheid",143,6.4831073514572,"baseheid",2.73,0,1.6094379124341,12,0,0,"incorrect",6.94889722231331
"173","pp15","tembaarheid",144,6.69084227741856,"baseheid",3.73,0,0,11,1.02667222131998,0,"incorrect",6.7428806357919
"174","pp15","contentheid",146,6.53813982376767,"heid",2.5,0,4.49980967033027,11,0,1,"correct",7.0647590277918
"175","pp15","erkendheid",147,6.33682573114644,"heid",4.73,0,6.5191472879404,10,0,0,"correct",6.56103066589657
"176","pp15","riantheid",165,7.30988148582479,"heid",2.36,0,4.53259949315326,9,0,0,"correct",6.6945620585211
"177","pp15","beuheid",169,6.59850902861452,"heid",1.73,0,5.06890420222023,7,0,0,"correct",6.87626461189077
"178","pp15","dementheid",173,6.52209279817015,"heid",3.23,0,3.8286413964891,10,0.741275220811803,0,"correct",6.59030104819669
"179","pp15","banaalheid",176,6.89568269774787,"baseheid",2.64,0,5.73979291217923,10,0.526588927497426,0,"correct",6.70808408385307
"180","pp15","blusbaarheid",189,6.49072353450251,"heid",2.91,0,0,12,1.19470700912477,0,"correct",7.0833878476253
"181","pp15","basaalheid",200,6.68835471394676,"heid",2.14,0,3.55534806148941,10,0,0,"incorrect",6.37842618365159
"182","pp15","ludiekheid",238,6.78219205600679,"heid",2.05,0,4.14313472639153,10,0,0,"correct",6.84800527457636
"183","pp15","ovaalheid",248,6.60123011872888,"heid",2.23,0,5.86078622346587,9,0.526588927497426,1,"correct",6.61338421837956
"184","pp15","visrijkheid",253,6.51767127291227,"baseheid",2.18,0,3.04452243772342,11,1.72894923152569,4,"correct",6.4707995037826
"185","pp15","pitloosheid",272,6.50128967054039,"heid",1.86,0,0,11,1.31050613197084,4,"correct",6.6682282484174
"186","pp15","jofelheid",274,6.52649485957079,"baseheid",2.64,0,3.3322045101752,9,0,0,"correct",6.66185474054531
"187","pp15","kalkrijkheid",276,6.53958595561767,"heid",2.09,0,3.13549421592915,12,1.48187723101362,3,"correct",6.93147180559945
"188","pp15","coulantheid",281,6.77536609093639,"heid",2.5,0,1.79175946922805,11,0,1,"incorrect",6.87832646829133
"189","pp15","ontroerdheid",282,6.4723462945009,"baseheid",3.32,0,5.54907608489522,12,0,1,"correct",6.27852142416584
"190","pp15","markantheid",319,7.14677217945264,"baseheid",2.73,0,5.16478597392351,11,0,0,"correct",6.67076632084587
"191","pp15","summierheid",320,6.70563909486,"heid",2.14,0,5.29831736654804,11,0.526588927497426,0,"incorrect",6.61472560020376
"192","pp15","enormheid",326,6.44888939414686,"baseheid",3,0,8.42463920980563,9,0.526588927497426,0,"correct",6.49526555593701
"193","pp15","onwelheid",329,6.41345895716736,"baseheid",2,0,3.97029191355212,9,1.7855468776495,1,"correct",6.50578406012823
"194","pp15","tilbaarheid",331,6.39526159811545,"baseheid",3.18,0,0,11,1.24844221891489,1,"correct",6.34738920965601
"195","pp15","geurloosheid",332,6.41836493593621,"baseheid",2.95,0,2.56494935746154,12,1.31050613197084,1,"correct",6.46302945692067
"196","pp15","pipsheid",344,6.78219205600679,"baseheid",1.86,0,3.3322045101752,8,0,0,"incorrect",6.3279367837292
"197","pp15","aftandsheid",346,6.40191719672719,"baseheid",2.05,0,4.20469261939097,11,0,0,"correct",6.52209279817015
"198","pp16","enormheid",79,6.30991827822652,"heid",3,0,8.42463920980563,9,0.526588927497426,0,"correct",6.25958146406492
"199","pp16","basaalheid",81,6.61069604471776,"baseheid",2.14,0,3.55534806148941,10,0,0,"correct",6.56807791141198
"200","pp16","markantheid",83,6.29710931993394,"heid",2.73,0,5.16478597392351,11,0,0,"correct",6.26720054854136
"201","pp16","ontroerdheid",89,6.52209279817015,"heid",3.32,0,5.54907608489522,12,0,1,"correct",6.46458830368996
"202","pp16","lobbigheid",92,6.44094654063292,"baseheid",1.82,0,0,10,0.741275220811803,3,"correct",6.43133108193348
"203","pp16","contentheid",95,6.45204895443723,"baseheid",2.5,0,4.49980967033027,11,0,1,"correct",6.3026189757449
"204","pp16","riantheid",96,6.3261494731551,"baseheid",2.36,0,4.53259949315326,9,0,0,"correct",6.27476202124194
"205","pp16","tembaarheid",111,6.42486902390539,"heid",3.73,0,0,11,1.02667222131998,0,"correct",6.84694313958538
"206","pp16","onattentheid",115,6.23244801655052,"heid",2.73,0,1.6094379124341,12,0,0,"correct",6.48768401848461
"207","pp16","bebrildheid",130,6.26339826259162,"baseheid",1.41,0,3.61091791264422,11,1.35850426878838,3,"incorrect",6.36302810354046
"208","pp16","aftandsheid",139,6.73459165997295,"heid",2.05,0,4.20469261939097,11,0,0,"correct",6.89972310728487
"209","pp16","geurloosheid",143,6.49526555593701,"heid",2.95,0,2.56494935746154,12,1.31050613197084,1,"correct",6.30078579466324
"210","pp16","ovaalheid",157,6.26339826259162,"baseheid",2.23,0,5.86078622346587,9,0.526588927497426,1,"correct",6.24222326545517
"211","pp16","erkendheid",172,6.32076829425058,"baseheid",4.73,0,6.5191472879404,10,0,0,"correct",6.35610766069589
"212","pp16","coulantheid",174,6.33505425149806,"baseheid",2.5,0,1.79175946922805,11,0,1,"correct",6.62539236800796
"213","pp16","labielheid",196,6.36818718635049,"heid",3.23,0,4.38202663467388,10,0.526588927497426,0,"correct",6.40522845803084
"214","pp16","visrijkheid",200,6.41673228251233,"heid",2.18,0,3.04452243772342,11,1.72894923152569,4,"correct",6.36302810354046
"215","pp16","ondiepheid",206,6.46925031679577,"baseheid",2.77,0,5.66296048013595,10,1.57000245622518,1,"correct",6.34035930372775
"216","pp16","onwelheid",207,6.41673228251233,"heid",2,0,3.97029191355212,9,1.7855468776495,1,"correct",6.4425401664682
"217","pp16","blusbaarheid",209,6.67456139181443,"baseheid",2.91,0,0,12,1.19470700912477,0,"correct",6.71417052990947
"218","pp16","tilbaarheid",215,6.5206211275587,"heid",3.18,0,0,11,1.24844221891489,1,"correct",6.46302945692067
"219","pp16","gammelheid",221,6.3491389913798,"baseheid",2.55,0,4.91265488573605,10,0,0,"correct",6.91373735065968
"220","pp16","koketheid",228,6.4707995037826,"heid",2,0,4.78749174278205,9,0.741275220811803,0,"correct",6.55819780281227
"221","pp16","ludiekheid",232,6.33150184989369,"baseheid",2.05,0,4.14313472639153,10,0,0,"correct",6.3919171133926
"222","pp16","pipsheid",242,6.26909628370626,"heid",1.86,0,3.3322045101752,8,0,0,"incorrect",6.34738920965601
"223","pp16","banaalheid",252,6.49526555593701,"heid",2.64,0,5.73979291217923,10,0.526588927497426,0,"correct",6.66440902035041
"224","pp16","bezweetheid",257,6.57368016696065,"heid",3.36,0,4.75359019110636,11,1.37230699238395,1,"correct",6.63068338564237
"225","pp16","beschutheid",264,6.30444880242198,"heid",2.95,0,4.78749174278205,11,0.526588927497426,0,"correct",6.43454651878745
"226","pp16","antiekheid",271,6.18826412308259,"baseheid",2.23,0,6.74523634948436,10,0.869739858620314,2,"correct",6.24222326545517
"227","pp16","tactvolheid",274,6.50578406012823,"baseheid",2.55,0,4.75359019110636,11,1.24844221891489,1,"correct",6.51767127291227
"228","pp16","jofelheid",275,6.22653666928747,"heid",2.64,0,3.3322045101752,9,0,0,"correct",6.16120732169508
"229","pp16","pitloosheid",309,6.54821910276237,"baseheid",1.86,0,0,11,1.31050613197084,4,"correct",6.36475075685191
"230","pp16","summierheid",310,6.49828214947643,"baseheid",2.14,0,5.29831736654804,11,0.526588927497426,0,"correct",6.37331978957701
"231","pp16","kalkrijkheid",316,6.3919171133926,"baseheid",2.09,0,3.13549421592915,12,1.48187723101362,3,"correct",6.2709884318583
"232","pp16","onbelastheid",317,6.22653666928747,"baseheid",2.55,0,3.17805383034795,12,1.72894923152569,6,"correct",6.09807428216624
"233","pp16","kortafheid",326,6.3578422665081,"heid",2.36,0,5.86929691313377,10,1.62482689233404,1,"correct",6.59441345974978
"234","pp16","saprijkheid",333,6.23048144757848,"heid",1.95,0,0,11,1.51630236639884,2,"correct",6.60665018619822
"235","pp16","beuheid",337,6.34388043412633,"baseheid",1.73,0,5.06890420222023,7,0,0,"correct",6.50578406012823
"236","pp16","dementheid",343,6.18620862390049,"baseheid",3.23,0,3.8286413964891,10,0.741275220811803,0,"correct",6.60800062529609
"237","pp16","royaalheid",344,6.26149168432104,"heid",3.36,0,6.0913098820777,10,0.526588927497426,0,"correct",6.26149168432104
"238","pp17","riantheid",68,6.7900972355139,"baseheid",2.36,0,4.53259949315326,9,0,0,"correct",6.77308037565554
"239","pp17","beuheid",73,6.9177056098353,"baseheid",1.73,0,5.06890420222023,7,0,0,"correct",6.41673228251233
"240","pp17","ovaalheid",81,6.38687931936265,"baseheid",2.23,0,5.86078622346587,9,0.526588927497426,1,"correct",6.46769872610435
"241","pp17","beschutheid",101,6.62539236800796,"heid",2.95,0,4.78749174278205,11,0.526588927497426,0,"correct",6.23244801655052
"242","pp17","tactvolheid",103,7.06646697013696,"baseheid",2.55,0,4.75359019110636,11,1.24844221891489,1,"correct",6.35262939631957
"243","pp17","tembaarheid",105,7.0975488506148,"heid",3.73,0,0,11,1.02667222131998,0,"correct",6.95177216439891
"244","pp17","summierheid",130,7.05531284333975,"baseheid",2.14,0,5.29831736654804,11,0.526588927497426,0,"correct",6.72743172485086
"245","pp17","tilbaarheid",131,6.9782137426307,"heid",3.18,0,0,11,1.24844221891489,1,"correct",6.60394382460047
"246","pp17","labielheid",163,7.11801620446533,"heid",3.23,0,4.38202663467388,10,0.526588927497426,0,"correct",7.032624261028
"247","pp17","contentheid",164,6.74758652682932,"baseheid",2.5,0,4.49980967033027,11,0,1,"correct",6.58892647753352
"248","pp17","dementheid",180,6.7428806357919,"baseheid",3.23,0,3.8286413964891,10,0.741275220811803,0,"correct",6.53958595561767
"249","pp17","enormheid",181,7.2086003379602,"heid",3,0,8.42463920980563,9,0.526588927497426,0,"correct",7.1739583197568
"250","pp17","royaalheid",192,7.1276936993474,"heid",3.36,0,6.0913098820777,10,0.526588927497426,0,"incorrect",7.46737106691756
"251","pp17","jofelheid",196,7.04403289727469,"heid",2.64,0,3.3322045101752,9,0,0,"correct",6.73340189183736
"252","pp17","basaalheid",214,7.26403014289953,"baseheid",2.14,0,3.55534806148941,10,0,0,"correct",6.64248680136726
"253","pp17","kalkrijkheid",222,7.23993259132047,"baseheid",2.09,0,3.13549421592915,12,1.48187723101362,3,"correct",7.02286808608264
"254","pp17","kortafheid",224,6.70808408385307,"heid",2.36,0,5.86929691313377,10,1.62482689233404,1,"correct",7.31521838975297
"255","pp17","ontroerdheid",243,6.83195356556585,"heid",3.32,0,5.54907608489522,12,0,1,"correct",6.99301512293296
"256","pp17","banaalheid",250,6.88243747099785,"heid",2.64,0,5.73979291217923,10,0.526588927497426,0,"incorrect",7.46737106691756
"257","pp17","erkendheid",253,6.65027904858742,"baseheid",4.73,0,6.5191472879404,10,0,0,"correct",6.65027904858742
"258","pp17","coulantheid",256,6.9622434642662,"baseheid",2.5,0,1.79175946922805,11,0,1,"correct",6.51471269087253
"259","pp17","geurloosheid",261,6.61606518513282,"heid",2.95,0,2.56494935746154,12,1.31050613197084,1,"correct",7.30586003268401
"260","pp17","ondiepheid",278,7.34148385236316,"baseheid",2.77,0,5.66296048013595,10,1.57000245622518,1,"correct",6.32256523992728
"261","pp17","markantheid",279,6.72142570079064,"heid",2.73,0,5.16478597392351,11,0,0,"correct",6.92951677076365
"262","pp17","bezweetheid",297,7.3078727807637,"heid",3.36,0,4.75359019110636,11,1.37230699238395,1,"incorrect",7.40306109109009
"263","pp17","koketheid",307,7.03614849375054,"heid",2,0,4.78749174278205,9,0.741275220811803,0,"correct",7.26332961747684
"264","pp17","onattentheid",310,6.92461239604856,"heid",2.73,0,1.6094379124341,12,0,0,"correct",7.46508273639955
"265","pp17","onwelheid",320,7.14124512235049,"heid",2,0,3.97029191355212,9,1.7855468776495,1,"incorrect",7.10906213568717
"266","pp18","koketheid",69,7.04141166379481,"heid",2,0,4.78749174278205,9,0.741275220811803,0,"incorrect",7.20414929203594
"267","pp18","bezweetheid",78,6.5132301109123,"heid",3.36,0,4.75359019110636,11,1.37230699238395,1,"correct",6.59304453414244
"268","pp18","ondiepheid",88,6.64509096950564,"baseheid",2.77,0,5.66296048013595,10,1.57000245622518,1,"correct",6.37672694789863
"269","pp18","saprijkheid",89,6.94312242281943,"heid",1.95,0,0,11,1.51630236639884,2,"incorrect",6.52649485957079
"270","pp18","royaalheid",97,6.98656645940643,"heid",3.36,0,6.0913098820777,10,0.526588927497426,0,"correct",6.45519856334012
"271","pp18","antiekheid",101,6.32076829425058,"baseheid",2.23,0,6.74523634948436,10,0.869739858620314,2,"correct",6.37842618365159
"272","pp18","beschutheid",110,6.93537044601511,"heid",2.95,0,4.78749174278205,11,0.526588927497426,0,"correct",7.06902342657826
"273","pp18","gammelheid",119,6.44571981938558,"baseheid",2.55,0,4.91265488573605,10,0,0,"correct",6.67456139181443
"274","pp18","tactvolheid",131,6.63594655568665,"baseheid",2.55,0,4.75359019110636,11,1.24844221891489,1,"correct",6.63068338564237
"275","pp18","onattentheid",143,6.65415252018322,"heid",2.73,0,1.6094379124341,12,0,0,"correct",6.77992190747225
"276","pp18","tembaarheid",144,6.5206211275587,"heid",3.73,0,0,11,1.02667222131998,0,"correct",6.7990558620588
"277","pp18","contentheid",146,6.5410299991899,"baseheid",2.5,0,4.49980967033027,11,0,1,"correct",6.7093043402583
"278","pp18","erkendheid",147,6.50128967054039,"baseheid",4.73,0,6.5191472879404,10,0,0,"correct",6.70318811324086
"279","pp18","riantheid",165,6.87316383421252,"baseheid",2.36,0,4.53259949315326,9,0,0,"correct",6.4150969591716
"280","pp18","beuheid",169,6.76157276880406,"baseheid",1.73,0,5.06890420222023,7,0,0,"correct",6.3261494731551
"281","pp18","banaalheid",176,6.84054652928869,"heid",2.64,0,5.73979291217923,10,0.526588927497426,0,"correct",7.12608727329912
"282","pp18","kortafheid",179,6.74051935960622,"heid",2.36,0,5.86929691313377,10,1.62482689233404,1,"correct",6.8627579130514
"283","pp18","blusbaarheid",189,6.59850902861452,"baseheid",2.91,0,0,12,1.19470700912477,0,"correct",6.48768401848461
"284","pp18","basaalheid",200,6.59987049921284,"baseheid",2.14,0,3.55534806148941,10,0,0,"correct",6.93439720992856
"285","pp18","ovaalheid",248,6.4118182677099,"baseheid",2.23,0,5.86078622346587,9,0.526588927497426,1,"correct",6.3456363608286
"286","pp18","visrijkheid",253,6.31535800152233,"heid",2.18,0,3.04452243772342,11,1.72894923152569,4,"correct",6.74641212857337
"287","pp18","labielheid",265,6.60258789218934,"heid",3.23,0,4.38202663467388,10,0.526588927497426,0,"correct",6.58202513889283
"288","pp18","onbelastheid",266,6.79682371827486,"baseheid",2.55,0,3.17805383034795,12,1.72894923152569,6,"correct",6.3985949345352
"289","pp18","pitloosheid",272,6.66568371778241,"baseheid",1.86,0,0,11,1.31050613197084,4,"correct",6.70686233660275
"290","pp18","jofelheid",274,6.6945620585211,"heid",2.64,0,3.3322045101752,9,0,0,"correct",6.73933662735717
"291","pp18","kalkrijkheid",276,6.6945620585211,"baseheid",2.09,0,3.13549421592915,12,1.48187723101362,3,"correct",6.53813982376767
"292","pp18","coulantheid",281,6.66057514983969,"baseheid",2.5,0,1.79175946922805,11,0,1,"correct",6.62539236800796
"293","pp18","ontroerdheid",282,6.48768401848461,"heid",3.32,0,5.54907608489522,12,0,1,"correct",7.28207365809346
"294","pp18","bebrildheid",303,6.71052310945243,"baseheid",1.41,0,3.61091791264422,11,1.35850426878838,3,"correct",6.7286286130847
"295","pp18","markantheid",319,6.45362499889269,"heid",2.73,0,5.16478597392351,11,0,0,"correct",6.65157187358973
"296","pp18","summierheid",320,6.51471269087253,"baseheid",2.14,0,5.29831736654804,11,0.526588927497426,0,"correct",6.50578406012823
"297","pp18","enormheid",326,6.37331978957701,"heid",3,0,8.42463920980563,9,0.526588927497426,0,"correct",6.78332520060396
"298","pp18","onwelheid",329,6.65286302935335,"heid",2,0,3.97029191355212,9,1.7855468776495,1,"correct",6.91671502035361
"299","pp18","tilbaarheid",331,6.46458830368996,"heid",3.18,0,0,11,1.24844221891489,1,"correct",6.41345895716736
"300","pp18","geurloosheid",332,6.47697236288968,"heid",2.95,0,2.56494935746154,12,1.31050613197084,1,"correct",6.53233429222235
"301","pp18","pipsheid",344,6.45833828334479,"heid",1.86,0,3.3322045101752,8,0,0,"correct",6.87832646829133
"302","pp18","aftandsheid",346,6.69950034016168,"heid",2.05,0,4.20469261939097,11,0,0,"correct",6.84268328223842
"303","pp19","enormheid",79,6.85646198459459,"baseheid",3,0,8.42463920980563,9,0.526588927497426,0,"correct",6.42486902390539
"304","pp19","basaalheid",81,6.69703424766648,"heid",2.14,0,3.55534806148941,10,0,0,"correct",6.80572255341699
"305","pp19","markantheid",83,6.63463335786169,"baseheid",2.73,0,5.16478597392351,11,0,0,"correct",6.46302945692067
"306","pp19","ontroerdheid",89,6.59578051396131,"baseheid",3.32,0,5.54907608489522,12,0,1,"correct",6.53378883793334
"307","pp19","lobbigheid",92,6.63331843328038,"heid",1.82,0,0,10,0.741275220811803,3,"correct",6.65286302935335
"308","pp19","contentheid",95,6.51025834052315,"heid",2.5,0,4.49980967033027,11,0,1,"correct",6.81892406527552
"309","pp19","riantheid",96,6.56526497003536,"heid",2.36,0,4.53259949315326,9,0,0,"correct",6.56244409369372
"310","pp19","tembaarheid",111,6.34212141872115,"baseheid",3.73,0,0,11,1.02667222131998,0,"correct",6.39024066706535
"311","pp19","onattentheid",115,6.60934924316738,"baseheid",2.73,0,1.6094379124341,12,0,0,"correct",6.75809450442773
"312","pp19","bebrildheid",130,6.54534966033442,"heid",1.41,0,3.61091791264422,11,1.35850426878838,3,"correct",6.85224256905188
"313","pp19","aftandsheid",139,6.84800527457636,"baseheid",2.05,0,4.20469261939097,11,0,0,"correct",6.62406522779989
"314","pp19","geurloosheid",143,6.51619307604296,"baseheid",2.95,0,2.56494935746154,12,1.31050613197084,1,"correct",6.38012253689976
"315","pp19","ovaalheid",157,6.41836493593621,"heid",2.23,0,5.86078622346587,9,0.526588927497426,1,"correct",6.50128967054039
"316","pp19","erkendheid",172,6.68336094576627,"heid",4.73,0,6.5191472879404,10,0,0,"incorrect",7.11395610956603
"317","pp19","coulantheid",174,6.56244409369372,"heid",2.5,0,1.79175946922805,11,0,1,"correct",6.76272950693188
"318","pp19","labielheid",196,6.61606518513282,"baseheid",3.23,0,4.38202663467388,10,0.526588927497426,0,"correct",6.38519439899773
"319","pp19","visrijkheid",200,6.58202513889283,"baseheid",2.18,0,3.04452243772342,11,1.72894923152569,4,"correct",6.49828214947643
"320","pp19","ondiepheid",206,6.34388043412633,"heid",2.77,0,5.66296048013595,10,1.57000245622518,1,"correct",6.72262979485545
"321","pp19","onwelheid",207,6.46458830368996,"baseheid",2,0,3.97029191355212,9,1.7855468776495,1,"correct",6.38012253689976
"322","pp19","blusbaarheid",209,6.52502965784346,"heid",2.91,0,0,12,1.19470700912477,0,"correct",6.72743172485086
"323","pp19","tilbaarheid",215,6.51619307604296,"baseheid",3.18,0,0,11,1.24844221891489,1,"correct",6.3491389913798
"324","pp19","gammelheid",221,6.63987583382654,"heid",2.55,0,4.91265488573605,10,0,0,"correct",6.63331843328038
"325","pp19","koketheid",228,6.48616078894409,"baseheid",2,0,4.78749174278205,9,0.741275220811803,0,"correct",6.39692965521615
"326","pp19","ludiekheid",232,6.59987049921284,"heid",2.05,0,4.14313472639153,10,0,0,"correct",6.61069604471776
"327","pp19","pipsheid",242,6.51619307604296,"baseheid",1.86,0,3.3322045101752,8,0,0,"correct",6.46614472423762
"328","pp19","banaalheid",252,6.5510803350434,"baseheid",2.64,0,5.73979291217923,10,0.526588927497426,0,"correct",6.45990445437753
"329","pp19","bezweetheid",257,6.52209279817015,"baseheid",3.36,0,4.75359019110636,11,1.37230699238395,1,"correct",6.56667242980324
"330","pp19","beschutheid",264,6.68210859744981,"baseheid",2.95,0,4.78749174278205,11,0.526588927497426,0,"correct",6.41673228251233
"331","pp19","tactvolheid",274,6.64378973314767,"heid",2.55,0,4.75359019110636,11,1.24844221891489,1,"correct",6.69579891705849
"332","pp19","jofelheid",275,6.7286286130847,"baseheid",2.64,0,3.3322045101752,9,0,0,"correct",6.64768837356333
"333","pp19","pitloosheid",309,6.3750248198281,"heid",1.86,0,0,11,1.31050613197084,4,"correct",6.62007320653036
"334","pp19","summierheid",310,6.60665018619822,"heid",2.14,0,5.29831736654804,11,0.526588927497426,0,"correct",6.7202201551353
"335","pp19","kalkrijkheid",316,6.55393340402581,"heid",2.09,0,3.13549421592915,12,1.48187723101362,3,"correct",6.77422388635761
"336","pp19","onbelastheid",317,6.5792512120101,"heid",2.55,0,3.17805383034795,12,1.72894923152569,6,"incorrect",7.14361760270412
"337","pp19","kortafheid",326,6.49072353450251,"baseheid",2.36,0,5.86929691313377,10,1.62482689233404,1,"correct",6.53233429222235
"338","pp19","saprijkheid",333,6.58479139238572,"baseheid",1.95,0,0,11,1.51630236639884,2,"correct",6.5510803350434
"339","pp19","beuheid",337,6.85118492749374,"heid",1.73,0,5.06890420222023,7,0,0,"correct",6.81234509417748
"340","pp19","dementheid",343,6.5792512120101,"heid",3.23,0,3.8286413964891,10,0.741275220811803,0,"correct",6.4723462945009
"341","pp19","royaalheid",344,6.45990445437753,"baseheid",3.36,0,6.0913098820777,10,0.526588927497426,0,"correct",6.44888939414686
"342","pp2","riantheid",68,6.48616078894409,"heid",2.36,0,4.53259949315326,9,0,0,"correct",6.45676965557216
"343","pp2","beuheid",73,6.53958595561767,"heid",1.73,0,5.06890420222023,7,0,0,"incorrect",6.2709884318583
"344","pp2","ovaalheid",81,6.18001665365257,"heid",2.23,0,5.86078622346587,9,0.526588927497426,1,"correct",6.54678541076052
"345","pp2","aftandsheid",88,6.56385552653213,"baseheid",2.05,0,4.20469261939097,11,0,0,"incorrect",6.20455776256869
"346","pp2","beschutheid",101,6.3456363608286,"baseheid",2.95,0,4.78749174278205,11,0.526588927497426,0,"correct",6.14846829591765
"347","pp2","tactvolheid",103,6.17378610390194,"heid",2.55,0,4.75359019110636,11,1.24844221891489,1,"correct",6.60934924316738
"348","pp2","tembaarheid",105,6.26149168432104,"baseheid",3.73,0,0,11,1.02667222131998,0,"correct",6.47543271670409
"349","pp2","summierheid",130,6.35610766069589,"heid",2.14,0,5.29831736654804,11,0.526588927497426,0,"correct",6.43133108193348
"350","pp2","tilbaarheid",131,6.22257626807137,"baseheid",3.18,0,0,11,1.24844221891489,1,"correct",6.30991827822652
"351","pp2","pitloosheid",135,6.34212141872115,"heid",1.86,0,0,11,1.31050613197084,4,"correct",6.49072353450251
"352","pp2","labielheid",163,6.48004456192665,"baseheid",3.23,0,4.38202663467388,10,0.526588927497426,0,"correct",6.35957386867238
"353","pp2","contentheid",164,6.22851100359118,"heid",2.5,0,4.49980967033027,11,0,1,"correct",6.66185474054531
"354","pp2","saprijkheid",178,6.71659477352098,"baseheid",1.95,0,0,11,1.51630236639884,2,"correct",6.48004456192665
"355","pp2","dementheid",180,6.23048144757848,"heid",3.23,0,3.8286413964891,10,0.741275220811803,0,"correct",6.25575004175337
"356","pp2","enormheid",181,6.3261494731551,"baseheid",3,0,8.42463920980563,9,0.526588927497426,0,"correct",6.20050917404269
"357","pp2","bebrildheid",185,6.48157712927643,"heid",1.41,0,3.61091791264422,11,1.35850426878838,3,"correct",6.98471632011827
"358","pp2","royaalheid",192,6.36647044773144,"baseheid",3.36,0,6.0913098820777,10,0.526588927497426,0,"correct",6.3135480462771
"359","pp2","jofelheid",196,6.16961073249146,"baseheid",2.64,0,3.3322045101752,9,0,0,"correct",6.21460809842219
"360","pp2","blusbaarheid",206,6.52649485957079,"heid",2.91,0,0,12,1.19470700912477,0,"incorrect",6.53958595561767
"361","pp2","basaalheid",214,6.1527326947041,"heid",2.14,0,3.55534806148941,10,0,0,"incorrect",6.67203294546107
"362","pp2","kalkrijkheid",222,6.24997524225948,"heid",2.09,0,3.13549421592915,12,1.48187723101362,3,"correct",6.70686233660275
"363","pp2","kortafheid",224,6.22059017009974,"baseheid",2.36,0,5.86929691313377,10,1.62482689233404,1,"correct",6.24222326545517
"364","pp2","ontroerdheid",243,6.40191719672719,"baseheid",3.32,0,5.54907608489522,12,0,1,"correct",6.13988455222626
"365","pp2","lobbigheid",249,7.34342622914737,"heid",1.82,0,0,10,0.741275220811803,3,"correct",6.57507584059962
"366","pp2","banaalheid",250,6.3261494731551,"baseheid",2.64,0,5.73979291217923,10,0.526588927497426,0,"correct",6.19236248947487
"367","pp2","erkendheid",253,6.48157712927643,"heid",4.73,0,6.5191472879404,10,0,0,"correct",6.49978704065585
"368","pp2","coulantheid",256,6.31173480915291,"heid",2.5,0,1.79175946922805,11,0,1,"correct",6.51767127291227
"369","pp2","geurloosheid",261,6.25190388316589,"baseheid",2.95,0,2.56494935746154,12,1.31050613197084,1,"correct",6.2803958389602
"370","pp2","antiekheid",271,6.04025471127741,"heid",2.23,0,6.74523634948436,10,0.869739858620314,2,"correct",6.3297209055227
"371","pp2","ludiekheid",273,6.67456139181443,"heid",2.05,0,4.14313472639153,10,0,0,"incorrect",6.57646956904822
"372","pp2","ondiepheid",278,6.10479323241498,"heid",2.77,0,5.66296048013595,10,1.57000245622518,1,"correct",6.5132301109123
"373","pp2","markantheid",279,6.25766758788264,"baseheid",2.73,0,5.16478597392351,11,0,0,"correct",6.19031540585315
"374","pp2","pipsheid",285,6.44888939414686,"baseheid",1.86,0,3.3322045101752,8,0,0,"correct",6.62406522779989
"375","pp2","bezweetheid",297,6.24804287450843,"baseheid",3.36,0,4.75359019110636,11,1.37230699238395,1,"correct",6.30078579466324
"376","pp2","onbelastheid",303,6.46302945692067,"heid",2.55,0,3.17805383034795,12,1.72894923152569,6,"correct",6.78105762593618
"377","pp2","koketheid",307,6.25766758788264,"baseheid",2,0,4.78749174278205,9,0.741275220811803,0,"correct",6.58479139238572
"378","pp2","onattentheid",310,6.29526600143965,"baseheid",2.73,0,1.6094379124341,12,0,0,"correct",6.27852142416584
"379","pp2","onwelheid",320,6.3578422665081,"baseheid",2,0,3.97029191355212,9,1.7855468776495,1,"correct",6.15697898558556
"380","pp2","visrijkheid",336,6.33150184989369,"baseheid",2.18,0,3.04452243772342,11,1.72894923152569,4,"correct",6.13772705408623
"381","pp2","gammelheid",338,6.35610766069589,"heid",2.55,0,4.91265488573605,10,0,0,"incorrect",6.37842618365159
"382","pp20","riantheid",68,6.45362499889269,"heid",2.36,0,4.53259949315326,9,0,0,"correct",6.55535689181067
"383","pp20","beuheid",73,6.71174039505618,"heid",1.73,0,5.06890420222023,7,0,0,"correct",6.68586094706836
"384","pp20","ovaalheid",81,6.71295620067707,"heid",2.23,0,5.86078622346587,9,0.526588927497426,1,"incorrect",6.24804287450843
"385","pp20","aftandsheid",88,6.71780469502369,"baseheid",2.05,0,4.20469261939097,11,0,0,"correct",6.76619171466035
"386","pp20","beschutheid",101,6.29894924685594,"baseheid",2.95,0,4.78749174278205,11,0.526588927497426,0,"correct",6.36302810354046
"387","pp20","tactvolheid",103,6.40357419793482,"heid",2.55,0,4.75359019110636,11,1.24844221891489,1,"correct",6.5410299991899
"388","pp20","tembaarheid",105,6.46302945692067,"baseheid",3.73,0,0,11,1.02667222131998,0,"correct",6.26530121273771
"389","pp20","summierheid",130,6.68085467879022,"heid",2.14,0,5.29831736654804,11,0.526588927497426,0,"correct",6.5410299991899
"390","pp20","tilbaarheid",131,6.38687931936265,"baseheid",3.18,0,0,11,1.24844221891489,1,"correct",6.4393503711001
"391","pp20","pitloosheid",135,6.72982407048948,"heid",1.86,0,0,11,1.31050613197084,4,"correct",6.75227037614174
"392","pp20","labielheid",163,6.63987583382654,"baseheid",3.23,0,4.38202663467388,10,0.526588927497426,0,"correct",6.55250788703459
"393","pp20","contentheid",164,6.36302810354046,"heid",2.5,0,4.49980967033027,11,0,1,"correct",6.6945620585211
"394","pp20","saprijkheid",178,6.54534966033442,"baseheid",1.95,0,0,11,1.51630236639884,2,"correct",6.62804137617953
"395","pp20","dementheid",180,6.46769872610435,"heid",3.23,0,3.8286413964891,10,0.741275220811803,0,"correct",6.61204103483309
"396","pp20","royaalheid",192,6.59304453414244,"baseheid",3.36,0,6.0913098820777,10,0.526588927497426,0,"correct",6.36302810354046
"397","pp20","blusbaarheid",206,6.61606518513282,"heid",2.91,0,0,12,1.19470700912477,0,"correct",6.8351845861473
"398","pp20","basaalheid",214,6.51767127291227,"heid",2.14,0,3.55534806148941,10,0,0,"incorrect",6.63331843328038
"399","pp20","ontroerdheid",243,6.61740297797448,"baseheid",3.32,0,5.54907608489522,12,0,1,"correct",6.49223983502047
"400","pp20","banaalheid",250,6.53958595561767,"baseheid",2.64,0,5.73979291217923,10,0.526588927497426,0,"correct",6.48920493132532
"401","pp20","erkendheid",253,6.40191719672719,"heid",4.73,0,6.5191472879404,10,0,0,"correct",6.59987049921284
"402","pp20","geurloosheid",261,6.87109129461055,"baseheid",2.95,0,2.56494935746154,12,1.31050613197084,1,"correct",6.54821910276237
"403","pp20","ludiekheid",273,7.04403289727469,"heid",2.05,0,4.14313472639153,10,0,0,"incorrect",6.37842618365159
"404","pp20","ondiepheid",278,6.94697599213542,"heid",2.77,0,5.66296048013595,10,1.57000245622518,1,"correct",7.12849594568004
"405","pp20","markantheid",279,6.6631326959908,"baseheid",2.73,0,5.16478597392351,11,0,0,"correct",6.54965074223381
"406","pp20","bezweetheid",297,6.53958595561767,"baseheid",3.36,0,4.75359019110636,11,1.37230699238395,1,"correct",6.58063913728495
"407","pp20","onbelastheid",303,6.67959918584438,"heid",2.55,0,3.17805383034795,12,1.72894923152569,6,"correct",6.95844839329766
"408","pp20","koketheid",307,6.4281052726846,"baseheid",2,0,4.78749174278205,9,0.741275220811803,0,"correct",6.6052979209482
"409","pp21","bezweetheid",78,6.58479139238572,"baseheid",3.36,0,4.75359019110636,11,1.37230699238395,1,"correct",6.57088296233958
"410","pp21","royaalheid",97,7.02286808608264,"baseheid",3.36,0,6.0913098820777,10,0.526588927497426,0,"correct",6.88550967003482
"411","pp21","antiekheid",101,7.15148546390474,"heid",2.23,0,6.74523634948436,10,0.869739858620314,2,"correct",7.02553831463852
"412","pp21","beschutheid",110,6.40191719672719,"baseheid",2.95,0,4.78749174278205,11,0.526588927497426,0,"correct",6.65286302935335
"413","pp21","gammelheid",119,6.89060912014717,"heid",2.55,0,4.91265488573605,10,0,0,"incorrect",7.12528309151071
"414","pp21","tactvolheid",131,6.8627579130514,"heid",2.55,0,4.75359019110636,11,1.24844221891489,1,"correct",7.01660968389422
"415","pp21","onattentheid",143,7.07749805356923,"baseheid",2.73,0,1.6094379124341,12,0,0,"incorrect",7.22402480828583
"416","pp21","tembaarheid",144,6.90173720665657,"baseheid",3.73,0,0,11,1.02667222131998,0,"correct",7.09589322109753
"417","pp21","contentheid",146,6.96318998587024,"heid",2.5,0,4.49980967033027,11,0,1,"correct",6.97634807044775
"418","pp21","erkendheid",147,7.06902342657826,"heid",4.73,0,6.5191472879404,10,0,0,"correct",6.6631326959908
"419","pp21","riantheid",165,6.88653164253051,"heid",2.36,0,4.53259949315326,9,0,0,"correct",6.8330317327862
"420","pp21","beuheid",169,7.03614849375054,"heid",1.73,0,5.06890420222023,7,0,0,"correct",7.27309259599952
"421","pp21","dementheid",173,6.58063913728495,"heid",3.23,0,3.8286413964891,10,0.741275220811803,0,"incorrect",7.41938058291869
"422","pp21","banaalheid",176,7.08002649992259,"baseheid",2.64,0,5.73979291217923,10,0.526588927497426,0,"correct",6.72142570079064
"423","pp21","blusbaarheid",189,6.8373328146856,"heid",2.91,0,0,12,1.19470700912477,0,"correct",7.41577697541539
"424","pp21","basaalheid",200,6.98841318199959,"heid",2.14,0,3.55534806148941,10,0,0,"incorrect",6.73459165997295
"425","pp21","ludiekheid",238,7.38523092306657,"heid",2.05,0,4.14313472639153,10,0,0,"correct",6.81014245011514
"426","pp21","ovaalheid",248,6.72383244082121,"heid",2.23,0,5.86078622346587,9,0.526588927497426,1,"correct",7.01929665371504
"427","pp21","visrijkheid",253,6.57786135772105,"baseheid",2.18,0,3.04452243772342,11,1.72894923152569,4,"correct",6.63463335786169
"428","pp21","lobbigheid",260,6.80350525760834,"heid",1.82,0,0,10,0.741275220811803,3,"correct",6.9027427371586
"429","pp21","labielheid",265,6.72142570079064,"baseheid",3.23,0,4.38202663467388,10,0.526588927497426,0,"correct",6.83195356556585
"430","pp21","onbelastheid",266,7.05358572719368,"heid",2.55,0,3.17805383034795,12,1.72894923152569,6,"incorrect",7.46737106691756
"431","pp21","pitloosheid",272,6.64509096950564,"heid",1.86,0,0,11,1.31050613197084,4,"correct",6.74170069465205
"432","pp21","jofelheid",274,6.43454651878745,"baseheid",2.64,0,3.3322045101752,9,0,0,"correct",6.48463523563525
"433","pp21","kalkrijkheid",276,6.5410299991899,"heid",2.09,0,3.13549421592915,12,1.48187723101362,3,"correct",6.93049476595163
"434","pp21","coulantheid",281,6.79570577517351,"heid",2.5,0,1.79175946922805,11,0,1,"incorrect",6.79794041297493
"435","pp21","ontroerdheid",282,6.80793494369993,"baseheid",3.32,0,5.54907608489522,12,0,1,"correct",6.69950034016168
"436","pp21","markantheid",319,7.032624261028,"baseheid",2.73,0,5.16478597392351,11,0,0,"correct",6.60394382460047
"437","pp21","summierheid",320,6.88755257166462,"heid",2.14,0,5.29831736654804,11,0.526588927497426,0,"correct",7.06304816338817
"438","pp21","enormheid",326,6.64248680136726,"baseheid",3,0,8.42463920980563,9,0.526588927497426,0,"correct",6.47697236288968
"439","pp21","tilbaarheid",331,6.8001700683022,"baseheid",3.18,0,0,11,1.24844221891489,1,"correct",6.44730586254121
"440","pp21","geurloosheid",332,6.63200177739563,"baseheid",2.95,0,2.56494935746154,12,1.31050613197084,1,"correct",6.65544035036765
"441","pp21","pipsheid",344,6.94793706861497,"baseheid",1.86,0,3.3322045101752,8,0,0,"correct",6.75925527066369
"442","pp22","enormheid",79,6.34212141872115,"heid",3,0,8.42463920980563,9,0.526588927497426,0,"correct",6.57088296233958
"443","pp22","basaalheid",81,6.50876913697168,"baseheid",2.14,0,3.55534806148941,10,0,0,"correct",6.55961523749324
"444","pp22","markantheid",83,6.55677835615804,"heid",2.73,0,5.16478597392351,11,0,0,"correct",6.57368016696065
"445","pp22","ontroerdheid",89,6.3261494731551,"heid",3.32,0,5.54907608489522,12,0,1,"correct",6.48004456192665
"446","pp22","lobbigheid",92,6.54965074223381,"baseheid",1.82,0,0,10,0.741275220811803,3,"correct",6.55677835615804
"447","pp22","contentheid",95,6.6631326959908,"baseheid",2.5,0,4.49980967033027,11,0,1,"correct",6.50128967054039
"448","pp22","riantheid",96,6.3818160174061,"baseheid",2.36,0,4.53259949315326,9,0,0,"correct",6.70073110954781
"449","pp22","tembaarheid",111,6.7428806357919,"heid",3.73,0,0,11,1.02667222131998,0,"correct",6.99025650049388
"450","pp22","onattentheid",115,6.32256523992728,"heid",2.73,0,1.6094379124341,12,0,0,"correct",6.72982407048948
"451","pp22","bebrildheid",130,6.64118216974059,"baseheid",1.41,0,3.61091791264422,11,1.35850426878838,3,"correct",6.47697236288968
"452","pp22","aftandsheid",139,6.87729607149743,"heid",2.05,0,4.20469261939097,11,0,0,"correct",6.95177216439891
"453","pp22","geurloosheid",143,6.3818160174061,"heid",2.95,0,2.56494935746154,12,1.31050613197084,1,"correct",6.63594655568665
"454","pp22","ovaalheid",157,6.5694814204143,"baseheid",2.23,0,5.86078622346587,9,0.526588927497426,1,"correct",6.3456363608286
"455","pp22","erkendheid",172,6.289715570909,"baseheid",4.73,0,6.5191472879404,10,0,0,"correct",6.35262939631957
"456","pp22","coulantheid",174,6.46458830368996,"baseheid",2.5,0,1.79175946922805,11,0,1,"correct",6.61472560020376
"457","pp22","labielheid",196,6.54821910276237,"heid",3.23,0,4.38202663467388,10,0.526588927497426,0,"correct",7.10414409298753
"458","pp22","visrijkheid",200,6.55677835615804,"heid",2.18,0,3.04452243772342,11,1.72894923152569,4,"correct",6.88448665204278
"459","pp22","ondiepheid",206,6.62539236800796,"baseheid",2.77,0,5.66296048013595,10,1.57000245622518,1,"incorrect",7.46737106691756
"460","pp22","onwelheid",207,6.40357419793482,"heid",2,0,3.97029191355212,9,1.7855468776495,1,"correct",6.59167373200866
"461","pp22","blusbaarheid",209,6.73933662735717,"baseheid",2.91,0,0,12,1.19470700912477,0,"correct",6.47850964220857
"462","pp22","tilbaarheid",215,6.46769872610435,"heid",3.18,0,0,11,1.24844221891489,1,"correct",6.45676965557216
"463","pp22","gammelheid",221,6.35088571671474,"baseheid",2.55,0,4.91265488573605,10,0,0,"correct",6.3491389913798
"464","pp22","koketheid",228,6.76849321164863,"heid",2,0,4.78749174278205,9,0.741275220811803,0,"correct",6.64378973314767
"465","pp22","ludiekheid",232,6.53958595561767,"baseheid",2.05,0,4.14313472639153,10,0,0,"correct",6.98564181763921
"466","pp22","pipsheid",242,6.36818718635049,"heid",1.86,0,3.3322045101752,8,0,0,"incorrect",6.53087762772588
"467","pp22","banaalheid",252,6.42324696353352,"heid",2.64,0,5.73979291217923,10,0.526588927497426,0,"correct",6.34035930372775
"468","pp22","bezweetheid",257,6.41673228251233,"heid",3.36,0,4.75359019110636,11,1.37230699238395,1,"correct",7.04315991598834
"469","pp22","beschutheid",264,6.47389069635227,"heid",2.95,0,4.78749174278205,11,0.526588927497426,0,"correct",6.31896811374643
"470","pp22","antiekheid",271,6.62539236800796,"baseheid",2.23,0,6.74523634948436,10,0.869739858620314,2,"correct",6.45047042214418
"471","pp22","tactvolheid",274,6.49375383985169,"baseheid",2.55,0,4.75359019110636,11,1.24844221891489,1,"correct",6.17378610390194
"472","pp22","jofelheid",275,6.71417052990947,"heid",2.64,0,3.3322045101752,9,0,0,"correct",6.42648845745769
"473","pp22","pitloosheid",309,6.53958595561767,"baseheid",1.86,0,0,11,1.31050613197084,4,"correct",6.27476202124194
"474","pp22","summierheid",310,6.55677835615804,"baseheid",2.14,0,5.29831736654804,11,0.526588927497426,0,"correct",6.44571981938558
"475","pp22","kalkrijkheid",316,6.45676965557216,"baseheid",2.09,0,3.13549421592915,12,1.48187723101362,3,"correct",6.4707995037826
"476","pp22","onbelastheid",317,6.67203294546107,"baseheid",2.55,0,3.17805383034795,12,1.72894923152569,6,"correct",6.59578051396131
"477","pp22","kortafheid",326,6.69084227741856,"heid",2.36,0,5.86929691313377,10,1.62482689233404,1,"correct",6.60800062529609
"478","pp22","saprijkheid",333,6.3261494731551,"heid",1.95,0,0,11,1.51630236639884,2,"correct",6.65544035036765
"479","pp22","beuheid",337,6.49828214947643,"baseheid",1.73,0,5.06890420222023,7,0,0,"correct",6.57088296233958
"480","pp22","dementheid",343,6.60258789218934,"baseheid",3.23,0,3.8286413964891,10,0.741275220811803,0,"correct",6.27852142416584
"481","pp22","royaalheid",344,6.2803958389602,"heid",3.36,0,6.0913098820777,10,0.526588927497426,0,"correct",6.3985949345352
"482","pp23","riantheid",68,6.3297209055227,"baseheid",2.36,0,4.53259949315326,9,0,0,"correct",6.46925031679577
"483","pp23","beuheid",73,6.3578422665081,"baseheid",1.73,0,5.06890420222023,7,0,0,"correct",6.32256523992728
"484","pp23","aftandsheid",88,7.17011954344963,"heid",2.05,0,4.20469261939097,11,0,0,"correct",7.07918439460967
"485","pp23","beschutheid",101,6.32256523992728,"heid",2.95,0,4.78749174278205,11,0.526588927497426,0,"incorrect",6.88550967003482
"486","pp23","tactvolheid",103,6.41017488196617,"baseheid",2.55,0,4.75359019110636,11,1.24844221891489,1,"correct",6.3261494731551
"487","pp23","tembaarheid",105,7.38956395367764,"heid",3.73,0,0,11,1.02667222131998,0,"incorrect",6.8330317327862
"488","pp23","summierheid",130,7.44541755670169,"baseheid",2.14,0,5.29831736654804,11,0.526588927497426,0,"correct",6.52502965784346
"489","pp23","tilbaarheid",131,6.79794041297493,"heid",3.18,0,0,11,1.24844221891489,1,"correct",7.1693500166706
"490","pp23","pitloosheid",135,6.85540879860993,"baseheid",1.86,0,0,11,1.31050613197084,4,"correct",6.76619171466035
"491","pp23","labielheid",163,6.53233429222235,"heid",3.23,0,4.38202663467388,10,0.526588927497426,0,"correct",7.03702761468628
"492","pp23","contentheid",164,6.76734312526539,"baseheid",2.5,0,4.49980967033027,11,0,1,"correct",6.52941883826223
"493","pp23","saprijkheid",178,6.35957386867238,"heid",1.95,0,0,11,1.51630236639884,2,"correct",6.72262979485545
"494","pp23","dementheid",180,6.40687998606931,"baseheid",3.23,0,3.8286413964891,10,0.741275220811803,0,"correct",6.43294009273918
"495","pp23","enormheid",181,6.16751649088834,"heid",3,0,8.42463920980563,9,0.526588927497426,0,"correct",7.2181768384034
"496","pp23","bebrildheid",185,7.20563517641036,"baseheid",1.41,0,3.61091791264422,11,1.35850426878838,3,"correct",7.10496544826984
"497","pp23","royaalheid",192,6.45833828334479,"heid",3.36,0,6.0913098820777,10,0.526588927497426,0,"correct",6.9177056098353
"498","pp23","jofelheid",196,6.40357419793482,"heid",2.64,0,3.3322045101752,9,0,0,"correct",6.48157712927643
"499","pp23","basaalheid",214,6.35610766069589,"baseheid",2.14,0,3.55534806148941,10,0,0,"correct",7.34018683532012
"500","pp23","kalkrijkheid",222,6.38012253689976,"baseheid",2.09,0,3.13549421592915,12,1.48187723101362,3,"correct",6.61204103483309
"501","pp23","kortafheid",224,6.30444880242198,"heid",2.36,0,5.86929691313377,10,1.62482689233404,1,"correct",6.87523208727658
"502","pp23","ontroerdheid",243,6.27664348934164,"heid",3.32,0,5.54907608489522,12,0,1,"correct",6.66185474054531
"503","pp23","lobbigheid",249,6.82001636467413,"baseheid",1.82,0,0,10,0.741275220811803,3,"correct",6.61873898351722
"504","pp23","banaalheid",250,6.4425401664682,"heid",2.64,0,5.73979291217923,10,0.526588927497426,0,"correct",6.5366915975913
"505","pp23","erkendheid",253,6.16541785423142,"baseheid",4.73,0,6.5191472879404,10,0,0,"correct",6.58063913728495
"506","pp23","coulantheid",256,6.43133108193348,"baseheid",2.5,0,1.79175946922805,11,0,1,"correct",6.76272950693188
"507","pp23","geurloosheid",261,6.82979373751242,"heid",2.95,0,2.56494935746154,12,1.31050613197084,1,"correct",6.84161547647759
"508","pp23","antiekheid",271,6.30991827822652,"baseheid",2.23,0,6.74523634948436,10,0.869739858620314,2,"correct",6.37331978957701
"509","pp23","ludiekheid",273,6.68336094576627,"baseheid",2.05,0,4.14313472639153,10,0,0,"correct",6.50727771238501
"510","pp23","ondiepheid",278,6.70073110954781,"baseheid",2.77,0,5.66296048013595,10,1.57000245622518,1,"correct",6.44094654063292
"511","pp23","markantheid",279,6.27664348934164,"heid",2.73,0,5.16478597392351,11,0,0,"correct",6.45362499889269
"512","pp23","pipsheid",285,6.69826805411541,"heid",1.86,0,3.3322045101752,8,0,0,"incorrect",6.24416690066374
"513","pp23","onbelastheid",303,6.72623340235875,"baseheid",2.55,0,3.17805383034795,12,1.72894923152569,6,"correct",6.99576615630485
"514","pp23","koketheid",307,6.55961523749324,"heid",2,0,4.78749174278205,9,0.741275220811803,0,"correct",6.90775527898214
"515","pp23","onattentheid",310,6.85856503479136,"heid",2.73,0,1.6094379124341,12,0,0,"correct",7.01301578963963
"516","pp23","onwelheid",320,6.9177056098353,"heid",2,0,3.97029191355212,9,1.7855468776495,1,"incorrect",6.89060912014717
"517","pp23","visrijkheid",336,6.73340189183736,"heid",2.18,0,3.04452243772342,11,1.72894923152569,4,"correct",6.88448665204278
"518","pp23","gammelheid",338,6.5132301109123,"baseheid",2.55,0,4.91265488573605,10,0,0,"correct",6.56385552653213
"519","pp24","koketheid",69,6.4707995037826,"heid",2,0,4.78749174278205,9,0.741275220811803,0,"correct",6.95272864462487
"520","pp24","bezweetheid",78,6.57368016696065,"heid",3.36,0,4.75359019110636,11,1.37230699238395,1,"correct",6.8373328146856
"521","pp24","ondiepheid",88,6.93049476595163,"baseheid",2.77,0,5.66296048013595,10,1.57000245622518,1,"correct",6.31535800152233
"522","pp24","saprijkheid",89,7.2232956795623,"heid",1.95,0,0,11,1.51630236639884,2,"correct",7.41758040241454
"523","pp24","royaalheid",97,6.37161184723186,"heid",3.36,0,6.0913098820777,10,0.526588927497426,0,"correct",6.34738920965601
"524","pp24","antiekheid",101,6.64898455002478,"baseheid",2.23,0,6.74523634948436,10,0.869739858620314,2,"correct",6.37672694789863
"525","pp24","beschutheid",110,6.23832462503951,"heid",2.95,0,4.78749174278205,11,0.526588927497426,0,"correct",6.50128967054039
"526","pp24","gammelheid",119,6.44571981938558,"baseheid",2.55,0,4.91265488573605,10,0,0,"incorrect",6.43615036836943
"527","pp24","tactvolheid",131,6.56667242980324,"baseheid",2.55,0,4.75359019110636,11,1.24844221891489,1,"correct",6.44094654063292
"528","pp24","onattentheid",143,6.7990558620588,"heid",2.73,0,1.6094379124341,12,0,0,"correct",6.95272864462487
"529","pp24","tembaarheid",144,6.46146817635372,"heid",3.73,0,0,11,1.02667222131998,0,"correct",6.74641212857337
"530","pp24","contentheid",146,6.3578422665081,"baseheid",2.5,0,4.49980967033027,11,0,1,"correct",6.42486902390539
"531","pp24","erkendheid",147,6.45047042214418,"baseheid",4.73,0,6.5191472879404,10,0,0,"correct",6.47850964220857
"532","pp24","riantheid",165,6.46146817635372,"baseheid",2.36,0,4.53259949315326,9,0,0,"correct",6.92362862813843
"533","pp24","beuheid",169,6.7990558620588,"baseheid",1.73,0,5.06890420222023,7,0,0,"correct",6.55677835615804
"534","pp24","dementheid",173,6.7202201551353,"baseheid",3.23,0,3.8286413964891,10,0.741275220811803,0,"correct",6.64378973314767
"535","pp24","banaalheid",176,6.48616078894409,"heid",2.64,0,5.73979291217923,10,0.526588927497426,0,"correct",6.68710860786651
"536","pp24","kortafheid",179,7.41938058291869,"heid",2.36,0,5.86929691313377,10,1.62482689233404,1,"correct",6.71659477352098
"537","pp24","blusbaarheid",189,6.80461452006262,"baseheid",2.91,0,0,12,1.19470700912477,0,"correct",6.72743172485086
"538","pp24","basaalheid",200,6.42971947803914,"baseheid",2.14,0,3.55534806148941,10,0,0,"correct",6.61338421837956
"539","pp24","ludiekheid",238,6.59850902861452,"baseheid",2.05,0,4.14313472639153,10,0,0,"correct",6.35610766069589
"540","pp24","ovaalheid",248,6.87523208727658,"baseheid",2.23,0,5.86078622346587,9,0.526588927497426,1,"correct",6.55961523749324
"541","pp24","visrijkheid",253,6.55535689181067,"heid",2.18,0,3.04452243772342,11,1.72894923152569,4,"incorrect",6.55535689181067
"542","pp24","lobbigheid",260,6.5410299991899,"baseheid",1.82,0,0,10,0.741275220811803,3,"correct",6.78897174299217
"543","pp24","labielheid",265,6.42162226780652,"heid",3.23,0,4.38202663467388,10,0.526588927497426,0,"correct",6.50128967054039
"544","pp24","onbelastheid",266,6.55535689181067,"baseheid",2.55,0,3.17805383034795,12,1.72894923152569,6,"correct",6.82328612235569
"545","pp24","pitloosheid",272,6.54965074223381,"baseheid",1.86,0,0,11,1.31050613197084,4,"correct",6.38687931936265
"546","pp24","jofelheid",274,6.3456363608286,"heid",2.64,0,3.3322045101752,9,0,0,"correct",6.61338421837956
"547","pp24","kalkrijkheid",276,6.83625927727707,"baseheid",2.09,0,3.13549421592915,12,1.48187723101362,3,"correct",6.57646956904822
"548","pp24","coulantheid",281,6.45676965557216,"baseheid",2.5,0,1.79175946922805,11,0,1,"correct",6.8596149036542
"549","pp24","ontroerdheid",282,6.8001700683022,"heid",3.32,0,5.54907608489522,12,0,1,"correct",6.75460409948796
"550","pp24","bebrildheid",303,6.49526555593701,"baseheid",1.41,0,3.61091791264422,11,1.35850426878838,3,"incorrect",6.45047042214418
"551","pp24","markantheid",319,6.57368016696065,"heid",2.73,0,5.16478597392351,11,0,0,"incorrect",6.99025650049388
"552","pp24","summierheid",320,6.45519856334012,"baseheid",2.14,0,5.29831736654804,11,0.526588927497426,0,"correct",6.63463335786169
"553","pp24","enormheid",326,6.31896811374643,"heid",3,0,8.42463920980563,9,0.526588927497426,0,"correct",6.68461172766793
"554","pp24","onwelheid",329,7.15070145759253,"heid",2,0,3.97029191355212,9,1.7855468776495,1,"incorrect",6.44413125670044
"555","pp24","tilbaarheid",331,6.84374994900622,"heid",3.18,0,0,11,1.24844221891489,1,"correct",6.49526555593701
"556","pp24","geurloosheid",332,6.75809450442773,"heid",2.95,0,2.56494935746154,12,1.31050613197084,1,"correct",6.8679744089703
"557","pp24","pipsheid",344,6.3750248198281,"heid",1.86,0,3.3322045101752,8,0,0,"incorrect",6.59578051396131
"558","pp24","aftandsheid",346,6.24222326545517,"heid",2.05,0,4.20469261939097,11,0,0,"correct",6.81454289725996
"559","pp25","enormheid",79,6.13772705408623,"baseheid",3,0,8.42463920980563,9,0.526588927497426,0,"correct",6.11589212548303
"560","pp25","basaalheid",81,6.43615036836943,"heid",2.14,0,3.55534806148941,10,0,0,"incorrect",6.27476202124194
"561","pp25","markantheid",83,6.31535800152233,"baseheid",2.73,0,5.16478597392351,11,0,0,"correct",6.45047042214418
"562","pp25","ontroerdheid",89,6.31535800152233,"baseheid",3.32,0,5.54907608489522,12,0,1,"correct",6.40025744530882
"563","pp25","lobbigheid",92,6.37842618365159,"heid",1.82,0,0,10,0.741275220811803,3,"correct",6.70318811324086
"564","pp25","contentheid",95,6.54534966033442,"heid",2.5,0,4.49980967033027,11,0,1,"correct",6.73340189183736
"565","pp25","riantheid",96,6.26530121273771,"heid",2.36,0,4.53259949315326,9,0,0,"correct",6.44571981938558
"566","pp25","tembaarheid",111,6.33150184989369,"baseheid",3.73,0,0,11,1.02667222131998,0,"correct",6.35610766069589
"567","pp25","onattentheid",115,6.42486902390539,"baseheid",2.73,0,1.6094379124341,12,0,0,"correct",6.66440902035041
"568","pp25","aftandsheid",139,6.42648845745769,"baseheid",2.05,0,4.20469261939097,11,0,0,"incorrect",6.3261494731551
"569","pp25","geurloosheid",143,6.47389069635227,"baseheid",2.95,0,2.56494935746154,12,1.31050613197084,1,"incorrect",6.06145691892802
"570","pp25","ovaalheid",157,6.4377516497364,"heid",2.23,0,5.86078622346587,9,0.526588927497426,1,"incorrect",7.00488198971286
"571","pp25","erkendheid",172,6.1779441140506,"heid",4.73,0,6.5191472879404,10,0,0,"correct",6.32435896238131
"572","pp25","coulantheid",174,6.22257626807137,"heid",2.5,0,1.79175946922805,11,0,1,"correct",6.75227037614174
"573","pp25","labielheid",196,6.22257626807137,"baseheid",3.23,0,4.38202663467388,10,0.526588927497426,0,"correct",6.23441072571837
"574","pp25","visrijkheid",200,6.21060007702465,"baseheid",2.18,0,3.04452243772342,11,1.72894923152569,4,"correct",6.49072353450251
"575","pp25","ondiepheid",206,6.29156913955832,"heid",2.77,0,5.66296048013595,10,1.57000245622518,1,"incorrect",6.94408720822953
"576","pp25","blusbaarheid",209,6.56385552653213,"heid",2.91,0,0,12,1.19470700912477,0,"correct",6.34035930372775
"577","pp25","tilbaarheid",215,6.33327962813969,"baseheid",3.18,0,0,11,1.24844221891489,1,"correct",6.29156913955832
"578","pp25","gammelheid",221,6.41836493593621,"heid",2.55,0,4.91265488573605,10,0,0,"correct",6.67203294546107
"579","pp25","ludiekheid",232,6.61873898351722,"heid",2.05,0,4.14313472639153,10,0,0,"incorrect",6.33327962813969
"580","pp25","pipsheid",242,6.57646956904822,"baseheid",1.86,0,3.3322045101752,8,0,0,"incorrect",6.63463335786169
"581","pp25","banaalheid",252,6.22653666928747,"baseheid",2.64,0,5.73979291217923,10,0.526588927497426,0,"correct",6.29341927884648
"582","pp25","bezweetheid",257,6.35262939631957,"baseheid",3.36,0,4.75359019110636,11,1.37230699238395,1,"correct",6.37331978957701
"583","pp25","beschutheid",264,6.22653666928747,"baseheid",2.95,0,4.78749174278205,11,0.526588927497426,0,"correct",6.71174039505618
"584","pp25","antiekheid",271,6.36990098282823,"heid",2.23,0,6.74523634948436,10,0.869739858620314,2,"correct",6.55535689181067
"585","pp25","tactvolheid",274,6.32256523992728,"heid",2.55,0,4.75359019110636,11,1.24844221891489,1,"correct",6.77308037565554
"586","pp25","jofelheid",275,6.43454651878745,"baseheid",2.64,0,3.3322045101752,9,0,0,"correct",6.44094654063292
"587","pp25","pitloosheid",309,6.40522845803084,"heid",1.86,0,0,11,1.31050613197084,4,"correct",6.59987049921284
"588","pp25","summierheid",310,6.56244409369372,"heid",2.14,0,5.29831736654804,11,0.526588927497426,0,"incorrect",6.1463292576689
"589","pp25","kalkrijkheid",316,6.65544035036765,"heid",2.09,0,3.13549421592915,12,1.48187723101362,3,"incorrect",6.54534966033442
"590","pp25","onbelastheid",317,7.13329595489607,"heid",2.55,0,3.17805383034795,12,1.72894923152569,6,"incorrect",6.64378973314767
"591","pp25","kortafheid",326,6.20455776256869,"baseheid",2.36,0,5.86929691313377,10,1.62482689233404,1,"incorrect",6.00141487796115
"592","pp25","saprijkheid",333,6.19847871649231,"baseheid",1.95,0,0,11,1.51630236639884,2,"correct",6.3297209055227
"593","pp25","beuheid",337,6.50578406012823,"heid",1.73,0,5.06890420222023,7,0,0,"incorrect",6.17170059741091
"594","pp25","dementheid",343,6.26339826259162,"heid",3.23,0,3.8286413964891,10,0.741275220811803,0,"correct",6.42648845745769
"595","pp25","royaalheid",344,6.19440539110467,"baseheid",3.36,0,6.0913098820777,10,0.526588927497426,0,"correct",6.24610676548156
"596","pp28","enormheid",79,6.36302810354046,"heid",3,0,8.42463920980563,9,0.526588927497426,0,"correct",6.54534966033442
"597","pp28","basaalheid",81,6.6682282484174,"baseheid",2.14,0,3.55534806148941,10,0,0,"correct",6.45362499889269
"598","pp28","markantheid",83,6.53233429222235,"heid",2.73,0,5.16478597392351,11,0,0,"correct",6.71295620067707
"599","pp28","ontroerdheid",89,6.58340922215876,"heid",3.32,0,5.54907608489522,12,0,1,"correct",6.38687931936265
"600","pp28","lobbigheid",92,6.5510803350434,"baseheid",1.82,0,0,10,0.741275220811803,3,"incorrect",6.72262979485545
"601","pp28","contentheid",95,6.87935580446044,"baseheid",2.5,0,4.49980967033027,11,0,1,"correct",6.31535800152233
"602","pp28","riantheid",96,7.0518556229559,"baseheid",2.36,0,4.53259949315326,9,0,0,"correct",6.26530121273771
"603","pp28","tembaarheid",111,6.61472560020376,"heid",3.73,0,0,11,1.02667222131998,0,"correct",6.71780469502369
"604","pp28","onattentheid",115,6.69208374250663,"heid",2.73,0,1.6094379124341,12,0,0,"correct",7.07496319796604
"605","pp28","bebrildheid",130,6.52356230614951,"baseheid",1.41,0,3.61091791264422,11,1.35850426878838,3,"incorrect",6.43615036836943
"606","pp28","aftandsheid",139,6.66185474054531,"heid",2.05,0,4.20469261939097,11,0,0,"correct",7.26542972325395
"607","pp28","geurloosheid",143,6.3750248198281,"heid",2.95,0,2.56494935746154,12,1.31050613197084,1,"correct",6.77078942390898
"608","pp28","ovaalheid",157,6.31716468674728,"baseheid",2.23,0,5.86078622346587,9,0.526588927497426,1,"correct",6.3026189757449
"609","pp28","erkendheid",172,6.21460809842219,"baseheid",4.73,0,6.5191472879404,10,0,0,"correct",6.22059017009974
"610","pp28","coulantheid",174,6.4377516497364,"baseheid",2.5,0,1.79175946922805,11,0,1,"correct",6.5366915975913
"611","pp28","labielheid",196,6.20657592672493,"heid",3.23,0,4.38202663467388,10,0.526588927497426,0,"correct",6.56103066589657
"612","pp28","visrijkheid",200,6.26339826259162,"heid",2.18,0,3.04452243772342,11,1.72894923152569,4,"correct",6.59030104819669
"613","pp28","ondiepheid",206,6.24610676548156,"baseheid",2.77,0,5.66296048013595,10,1.57000245622518,1,"correct",6.29710931993394
"614","pp28","onwelheid",207,6.361302477573,"heid",2,0,3.97029191355212,9,1.7855468776495,1,"incorrect",6.58340922215876
"615","pp28","blusbaarheid",209,6.35957386867238,"baseheid",2.91,0,0,12,1.19470700912477,0,"correct",6.72383244082121
"616","pp28","tilbaarheid",215,7.05012252026906,"heid",3.18,0,0,11,1.24844221891489,1,"correct",6.95749737087695
"617","pp28","gammelheid",221,6.45676965557216,"baseheid",2.55,0,4.91265488573605,10,0,0,"correct",6.60258789218934
"618","pp28","koketheid",228,6.23441072571837,"heid",2,0,4.78749174278205,9,0.741275220811803,0,"correct",6.67708346124714
"619","pp28","ludiekheid",232,6.45990445437753,"baseheid",2.05,0,4.14313472639153,10,0,0,"correct",6.52356230614951
"620","pp28","pipsheid",242,6.45833828334479,"heid",1.86,0,3.3322045101752,8,0,0,"incorrect",6.38856140554563
"621","pp28","banaalheid",252,6.40522845803084,"heid",2.64,0,5.73979291217923,10,0.526588927497426,0,"correct",6.3750248198281
"622","pp28","bezweetheid",257,6.35262939631957,"heid",3.36,0,4.75359019110636,11,1.37230699238395,1,"correct",6.3135480462771
"623","pp28","beschutheid",264,6.8134445995109,"heid",2.95,0,4.78749174278205,11,0.526588927497426,0,"incorrect",6.4723462945009
"624","pp28","antiekheid",271,6.4118182677099,"baseheid",2.23,0,6.74523634948436,10,0.869739858620314,2,"correct",6.28599809450886
"625","pp28","tactvolheid",274,6.41017488196617,"baseheid",2.55,0,4.75359019110636,11,1.24844221891489,1,"correct",6.33682573114644
"626","pp28","jofelheid",275,6.38856140554563,"heid",2.64,0,3.3322045101752,9,0,0,"correct",6.45362499889269
"627","pp28","pitloosheid",309,6.23244801655052,"baseheid",1.86,0,0,11,1.31050613197084,4,"correct",6.30809844150953
"628","pp28","summierheid",310,6.40025744530882,"baseheid",2.14,0,5.29831736654804,11,0.526588927497426,0,"correct",6.35088571671474
"629","pp28","kalkrijkheid",316,6.57368016696065,"baseheid",2.09,0,3.13549421592915,12,1.48187723101362,3,"correct",6.71174039505618
"630","pp28","onbelastheid",317,6.56385552653213,"baseheid",2.55,0,3.17805383034795,12,1.72894923152569,6,"correct",6.34738920965601
"631","pp28","kortafheid",326,6.29526600143965,"heid",2.36,0,5.86929691313377,10,1.62482689233404,1,"correct",6.62007320653036
"632","pp28","saprijkheid",333,6.61740297797448,"heid",1.95,0,0,11,1.51630236639884,2,"correct",6.67959918584438
"633","pp28","beuheid",337,6.64248680136726,"baseheid",1.73,0,5.06890420222023,7,0,0,"correct",6.3261494731551
"634","pp28","dementheid",343,6.36818718635049,"baseheid",3.23,0,3.8286413964891,10,0.741275220811803,0,"correct",6.22059017009974
"635","pp28","royaalheid",344,6.41345895716736,"heid",3.36,0,6.0913098820777,10,0.526588927497426,0,"correct",6.31896811374643
"636","pp3","koketheid",69,6.73101810048208,"baseheid",2,0,4.78749174278205,9,0.741275220811803,0,"correct",6.42648845745769
"637","pp3","bezweetheid",78,6.59714570188665,"baseheid",3.36,0,4.75359019110636,11,1.37230699238395,1,"correct",6.46302945692067
"638","pp3","ondiepheid",88,6.42486902390539,"heid",2.77,0,5.66296048013595,10,1.57000245622518,1,"correct",6.5792512120101
"639","pp3","royaalheid",97,6.67582322163485,"baseheid",3.36,0,6.0913098820777,10,0.526588927497426,0,"correct",6.56385552653213
"640","pp3","antiekheid",101,6.57507584059962,"heid",2.23,0,6.74523634948436,10,0.869739858620314,2,"correct",6.56244409369372
"641","pp3","beschutheid",110,6.79794041297493,"baseheid",2.95,0,4.78749174278205,11,0.526588927497426,0,"correct",7.36391350140582
"642","pp3","gammelheid",119,6.48157712927643,"heid",2.55,0,4.91265488573605,10,0,0,"correct",6.95272864462487
"643","pp3","tactvolheid",131,7.23417717974985,"heid",2.55,0,4.75359019110636,11,1.24844221891489,1,"correct",6.80572255341699
"644","pp3","onattentheid",143,6.84906628263346,"baseheid",2.73,0,1.6094379124341,12,0,0,"correct",7.11151211649616
"645","pp3","tembaarheid",144,6.6682282484174,"baseheid",3.73,0,0,11,1.02667222131998,0,"correct",6.55819780281227
"646","pp3","erkendheid",147,7.14361760270412,"heid",4.73,0,6.5191472879404,10,0,0,"incorrect",6.91968384984741
"647","pp3","riantheid",165,6.54391184556479,"heid",2.36,0,4.53259949315326,9,0,0,"correct",6.73815249459596
"648","pp3","beuheid",169,6.54821910276237,"heid",1.73,0,5.06890420222023,7,0,0,"correct",6.9555926083963
"649","pp3","dementheid",173,6.51619307604296,"heid",3.23,0,3.8286413964891,10,0.741275220811803,0,"incorrect",7.22037383672395
"650","pp3","kortafheid",179,6.95081476844258,"baseheid",2.36,0,5.86929691313377,10,1.62482689233404,1,"correct",6.41345895716736
"651","pp3","blusbaarheid",189,7.028201432058,"heid",2.91,0,0,12,1.19470700912477,0,"incorrect",6.46925031679577
"652","pp3","basaalheid",200,6.82437367004309,"heid",2.14,0,3.55534806148941,10,0,0,"incorrect",6.98841318199959
"653","pp3","ludiekheid",238,6.48157712927643,"heid",2.05,0,4.14313472639153,10,0,0,"correct",7.10496544826984
"654","pp3","ovaalheid",248,6.39692965521615,"heid",2.23,0,5.86078622346587,9,0.526588927497426,1,"correct",6.71780469502369
"655","pp3","visrijkheid",253,6.54678541076052,"baseheid",2.18,0,3.04452243772342,11,1.72894923152569,4,"correct",6.65286302935335
"656","pp3","labielheid",265,6.89365635460264,"baseheid",3.23,0,4.38202663467388,10,0.526588927497426,0,"correct",6.59304453414244
"657","pp3","pitloosheid",272,6.51174532964473,"heid",1.86,0,0,11,1.31050613197084,4,"correct",6.90875477931522
"658","pp3","jofelheid",274,6.45362499889269,"baseheid",2.64,0,3.3322045101752,9,0,0,"incorrect",6.46925031679577
"659","pp3","kalkrijkheid",276,6.93731408122368,"heid",2.09,0,3.13549421592915,12,1.48187723101362,3,"incorrect",6.51174532964473
"660","pp3","coulantheid",281,6.6052979209482,"heid",2.5,0,1.79175946922805,11,0,1,"incorrect",6.52502965784346
"661","pp3","ontroerdheid",282,6.68959926917897,"baseheid",3.32,0,5.54907608489522,12,0,1,"correct",6.55677835615804
"662","pp3","bebrildheid",303,6.91572344863131,"heid",1.41,0,3.61091791264422,11,1.35850426878838,3,"incorrect",6.42971947803914
"663","pp3","markantheid",319,7.3004728142678,"baseheid",2.73,0,5.16478597392351,11,0,0,"correct",6.55250788703459
"664","pp3","summierheid",320,6.81014245011514,"heid",2.14,0,5.29831736654804,11,0.526588927497426,0,"incorrect",6.4425401664682
"665","pp3","enormheid",326,6.87109129461055,"baseheid",3,0,8.42463920980563,9,0.526588927497426,0,"correct",6.47543271670409
"666","pp3","onwelheid",329,6.78332520060396,"baseheid",2,0,3.97029191355212,9,1.7855468776495,1,"correct",6.3261494731551
"667","pp3","tilbaarheid",331,6.28785856016178,"baseheid",3.18,0,0,11,1.24844221891489,1,"correct",6.11589212548303
"668","pp3","geurloosheid",332,6.38012253689976,"baseheid",2.95,0,2.56494935746154,12,1.31050613197084,1,"correct",6.28785856016178
"669","pp3","pipsheid",344,6.77992190747225,"baseheid",1.86,0,3.3322045101752,8,0,0,"correct",6.44888939414686
"670","pp3","aftandsheid",346,6.84268328223842,"baseheid",2.05,0,4.20469261939097,11,0,0,"correct",6.67203294546107
"671","pp4","geurloosheid",143,6.95654544315157,"heid",2.95,0,2.56494935746154,12,1.31050613197084,1,"correct",7.11882624906208
"672","pp4","coulantheid",174,7.32909373624659,"baseheid",2.5,0,1.79175946922805,11,0,1,"correct",6.80239476332431
"673","pp4","visrijkheid",200,7.42237370098682,"heid",2.18,0,3.04452243772342,11,1.72894923152569,4,"correct",7.3356339819272
"674","pp4","ondiepheid",206,7.07834157955767,"baseheid",2.77,0,5.66296048013595,10,1.57000245622518,1,"correct",6.61069604471776
"675","pp4","blusbaarheid",209,6.94022246911964,"baseheid",2.91,0,0,12,1.19470700912477,0,"correct",6.9782137426307
"676","pp4","tilbaarheid",215,6.87523208727658,"heid",3.18,0,0,11,1.24844221891489,1,"correct",6.75925527066369
"677","pp4","gammelheid",221,7.04141166379481,"baseheid",2.55,0,4.91265488573605,10,0,0,"correct",6.97354301952014
"678","pp4","beschutheid",264,7.44366368311559,"heid",2.95,0,4.78749174278205,11,0.526588927497426,0,"correct",7.06219163228656
"679","pp4","tactvolheid",274,7.20042489294496,"baseheid",2.55,0,4.75359019110636,11,1.24844221891489,1,"correct",7.00124562206948
"680","pp4","jofelheid",275,7.2868764117507,"heid",2.64,0,3.3322045101752,9,0,0,"incorrect",7.46737106691756
"681","pp4","pitloosheid",309,7.38212436573751,"baseheid",1.86,0,0,11,1.31050613197084,4,"correct",7.15773548424991
"682","pp4","kalkrijkheid",316,6.97914527506881,"baseheid",2.09,0,3.13549421592915,12,1.48187723101362,3,"correct",6.8501261661455
"683","pp4","onbelastheid",317,7.44132038971762,"baseheid",2.55,0,3.17805383034795,12,1.72894923152569,6,"correct",6.98007594056176
"684","pp4","saprijkheid",333,6.8373328146856,"heid",1.95,0,0,11,1.51630236639884,2,"correct",7.03878354138854
"685","pp4","royaalheid",344,7.09837563859079,"heid",3.36,0,6.0913098820777,10,0.526588927497426,0,"correct",7.09589322109753
"686","pp5","riantheid",68,6.97447891102505,"baseheid",2.36,0,4.53259949315326,9,0,0,"correct",6.65672652417839
"687","pp5","ovaalheid",81,6.76157276880406,"baseheid",2.23,0,5.86078622346587,9,0.526588927497426,1,"correct",6.53087762772588
"688","pp5","aftandsheid",88,6.63987583382654,"heid",2.05,0,4.20469261939097,11,0,0,"incorrect",6.60258789218934
"689","pp5","beschutheid",101,6.8265452235566,"heid",2.95,0,4.78749174278205,11,0.526588927497426,0,"correct",6.82110747225646
"690","pp5","dementheid",180,7.04664727784876,"baseheid",3.23,0,3.8286413964891,10,0.741275220811803,0,"correct",6.8501261661455
"691","pp5","royaalheid",192,6.78558764500793,"heid",3.36,0,6.0913098820777,10,0.526588927497426,0,"incorrect",6.84800527457636
"692","pp6","koketheid",69,6.48768401848461,"heid",2,0,4.78749174278205,9,0.741275220811803,0,"correct",6.74993119378857
"693","pp6","bezweetheid",78,6.34035930372775,"heid",3.36,0,4.75359019110636,11,1.37230699238395,1,"correct",6.3578422665081
"694","pp6","ondiepheid",88,6.26720054854136,"baseheid",2.77,0,5.66296048013595,10,1.57000245622518,1,"correct",6.31896811374643
"695","pp6","royaalheid",97,6.22851100359118,"heid",3.36,0,6.0913098820777,10,0.526588927497426,0,"correct",6.36302810354046
"696","pp6","antiekheid",101,6.27287700654617,"baseheid",2.23,0,6.74523634948436,10,0.869739858620314,2,"correct",6.21860011969173
"697","pp6","beschutheid",110,6.29156913955832,"heid",2.95,0,4.78749174278205,11,0.526588927497426,0,"correct",6.47389069635227
"698","pp6","gammelheid",119,6.59304453414244,"baseheid",2.55,0,4.91265488573605,10,0,0,"incorrect",6.31535800152233
"699","pp6","tactvolheid",131,6.37331978957701,"baseheid",2.55,0,4.75359019110636,11,1.24844221891489,1,"correct",6.35957386867238
"700","pp6","onattentheid",143,6.62671774924902,"heid",2.73,0,1.6094379124341,12,0,0,"correct",6.74405918631135
"701","pp6","tembaarheid",144,6.35437004079735,"heid",3.73,0,0,11,1.02667222131998,0,"correct",6.71538338633468
"702","pp6","contentheid",146,6.51619307604296,"baseheid",2.5,0,4.49980967033027,11,0,1,"correct",6.68085467879022
"703","pp6","erkendheid",147,6.289715570909,"baseheid",4.73,0,6.5191472879404,10,0,0,"correct",6.1527326947041
"704","pp6","riantheid",165,6.34388043412633,"baseheid",2.36,0,4.53259949315326,9,0,0,"correct",6.54534966033442
"705","pp6","beuheid",169,6.3919171133926,"baseheid",1.73,0,5.06890420222023,7,0,0,"correct",6.40357419793482
"706","pp6","dementheid",173,6.3135480462771,"baseheid",3.23,0,3.8286413964891,10,0.741275220811803,0,"correct",6.35437004079735
"707","pp6","banaalheid",176,6.383506634884,"heid",2.64,0,5.73979291217923,10,0.526588927497426,0,"correct",6.77878489768518
"708","pp6","kortafheid",179,6.3456363608286,"heid",2.36,0,5.86929691313377,10,1.62482689233404,1,"correct",6.35437004079735
"709","pp6","blusbaarheid",189,6.4425401664682,"baseheid",2.91,0,0,12,1.19470700912477,0,"correct",6.49375383985169
"710","pp6","basaalheid",200,6.31716468674728,"baseheid",2.14,0,3.55534806148941,10,0,0,"correct",6.56526497003536
"711","pp6","ludiekheid",238,6.2841341610708,"baseheid",2.05,0,4.14313472639153,10,0,0,"correct",6.3578422665081
"712","pp6","ovaalheid",248,6.21460809842219,"baseheid",2.23,0,5.86078622346587,9,0.526588927497426,1,"correct",6.36302810354046
"713","pp6","visrijkheid",253,6.28785856016178,"heid",2.18,0,3.04452243772342,11,1.72894923152569,4,"correct",6.44730586254121
"714","pp6","lobbigheid",260,6.6052979209482,"baseheid",1.82,0,0,10,0.741275220811803,3,"incorrect",6.15697898558556
"715","pp6","labielheid",265,6.34035930372775,"heid",3.23,0,4.38202663467388,10,0.526588927497426,0,"correct",6.65929391968364
"716","pp6","onbelastheid",266,6.35088571671474,"baseheid",2.55,0,3.17805383034795,12,1.72894923152569,6,"correct",6.44730586254121
"717","pp6","pitloosheid",272,6.26530121273771,"baseheid",1.86,0,0,11,1.31050613197084,4,"correct",6.67329796776765
"718","pp6","jofelheid",274,6.2841341610708,"heid",2.64,0,3.3322045101752,9,0,0,"correct",6.80572255341699
"719","pp6","kalkrijkheid",276,6.2841341610708,"baseheid",2.09,0,3.13549421592915,12,1.48187723101362,3,"correct",6.31716468674728
"720","pp6","coulantheid",281,6.3026189757449,"baseheid",2.5,0,1.79175946922805,11,0,1,"correct",6.82871207164168
"721","pp6","ontroerdheid",282,6.21860011969173,"heid",3.32,0,5.54907608489522,12,0,1,"correct",6.32256523992728
"722","pp6","bebrildheid",303,6.4118182677099,"baseheid",1.41,0,3.61091791264422,11,1.35850426878838,3,"correct",6.6682282484174
"723","pp6","markantheid",319,6.33150184989369,"heid",2.73,0,5.16478597392351,11,0,0,"correct",6.55393340402581
"724","pp6","summierheid",320,6.56244409369372,"baseheid",2.14,0,5.29831736654804,11,0.526588927497426,0,"correct",6.55250788703459
"725","pp6","enormheid",326,6.21860011969173,"heid",3,0,8.42463920980563,9,0.526588927497426,0,"correct",6.7202201551353
"726","pp6","onwelheid",329,6.58202513889283,"heid",2,0,3.97029191355212,9,1.7855468776495,1,"correct",6.95081476844258
"727","pp6","tilbaarheid",331,6.3279367837292,"heid",3.18,0,0,11,1.24844221891489,1,"correct",6.34035930372775
"728","pp6","geurloosheid",332,6.30078579466324,"heid",2.95,0,2.56494935746154,12,1.31050613197084,1,"correct",6.41999492814714
"729","pp6","pipsheid",344,6.73933662735717,"heid",1.86,0,3.3322045101752,8,0,0,"incorrect",7.0518556229559
"730","pp6","aftandsheid",346,6.38519439899773,"heid",2.05,0,4.20469261939097,11,0,0,"correct",7.02108396428914
"731","pp7","enormheid",79,6.28599809450886,"baseheid",3,0,8.42463920980563,9,0.526588927497426,0,"correct",6.13988455222626
"732","pp7","basaalheid",81,6.3919171133926,"heid",2.14,0,3.55534806148941,10,0,0,"correct",6.62804137617953
"733","pp7","markantheid",83,7.06902342657826,"baseheid",2.73,0,5.16478597392351,11,0,0,"incorrect",6.30809844150953
"734","pp7","ontroerdheid",89,6.48616078894409,"baseheid",3.32,0,5.54907608489522,12,0,1,"correct",6.56526497003536
"735","pp7","lobbigheid",92,6.40025744530882,"heid",1.82,0,0,10,0.741275220811803,3,"incorrect",6.40025744530882
"736","pp7","contentheid",95,6.3491389913798,"heid",2.5,0,4.49980967033027,11,0,1,"correct",6.29710931993394
"737","pp7","riantheid",96,6.76272950693188,"heid",2.36,0,4.53259949315326,9,0,0,"correct",6.5694814204143
"738","pp7","tembaarheid",111,6.96413561241824,"baseheid",3.73,0,0,11,1.02667222131998,0,"incorrect",6.50128967054039
"739","pp7","onattentheid",115,6.55393340402581,"baseheid",2.73,0,1.6094379124341,12,0,0,"correct",6.50128967054039
"740","pp7","aftandsheid",139,7.02997291170639,"baseheid",2.05,0,4.20469261939097,11,0,0,"incorrect",6.07993319509559
"741","pp7","geurloosheid",143,6.26720054854136,"baseheid",2.95,0,2.56494935746154,12,1.31050613197084,1,"correct",6.47697236288968
"742","pp7","erkendheid",172,6.37842618365159,"heid",4.73,0,6.5191472879404,10,0,0,"correct",6.62406522779989
"743","pp7","labielheid",196,6.76388490856244,"baseheid",3.23,0,4.38202663467388,10,0.526588927497426,0,"correct",6.30627528694802
"744","pp7","visrijkheid",200,6.48920493132532,"baseheid",2.18,0,3.04452243772342,11,1.72894923152569,4,"correct",6.29526600143965
"745","pp7","ondiepheid",206,7.20934025660291,"heid",2.77,0,5.66296048013595,10,1.57000245622518,1,"correct",6.27852142416584
"746","pp7","blusbaarheid",209,7.04490511712937,"heid",2.91,0,0,12,1.19470700912477,0,"correct",6.89162589705225
"747","pp7","tilbaarheid",215,6.41836493593621,"baseheid",3.18,0,0,11,1.24844221891489,1,"correct",6.27476202124194
"748","pp7","gammelheid",221,6.39526159811545,"heid",2.55,0,4.91265488573605,10,0,0,"incorrect",6.34212141872115
"749","pp7","ludiekheid",232,6.78105762593618,"heid",2.05,0,4.14313472639153,10,0,0,"incorrect",7.27239839257005
"750","pp7","pipsheid",242,6.52502965784346,"baseheid",1.86,0,3.3322045101752,8,0,0,"correct",6.83840520084734
"751","pp7","banaalheid",252,6.40191719672719,"baseheid",2.64,0,5.73979291217923,10,0.526588927497426,0,"correct",6.48616078894409
"752","pp7","bezweetheid",257,6.34388043412633,"baseheid",3.36,0,4.75359019110636,11,1.37230699238395,1,"correct",6.54965074223381
"753","pp7","beschutheid",264,6.16541785423142,"baseheid",2.95,0,4.78749174278205,11,0.526588927497426,0,"correct",6.32076829425058
"754","pp7","jofelheid",275,6.24997524225948,"baseheid",2.64,0,3.3322045101752,9,0,0,"correct",6.3919171133926
"755","pp7","pitloosheid",309,6.34035930372775,"heid",1.86,0,0,11,1.31050613197084,4,"correct",6.75343791859778
"756","pp7","kalkrijkheid",316,7.00488198971286,"heid",2.09,0,3.13549421592915,12,1.48187723101362,3,"incorrect",6.32076829425058
"757","pp7","onbelastheid",317,7.31521838975297,"heid",2.55,0,3.17805383034795,12,1.72894923152569,6,"correct",6.68336094576627
"758","pp7","kortafheid",326,6.56667242980324,"baseheid",2.36,0,5.86929691313377,10,1.62482689233404,1,"correct",6.45362499889269
"759","pp7","saprijkheid",333,6.87523208727658,"baseheid",1.95,0,0,11,1.51630236639884,2,"correct",6.31716468674728
"760","pp7","dementheid",343,6.95081476844258,"heid",3.23,0,3.8286413964891,10,0.741275220811803,0,"correct",6.52941883826223
"761","pp7","royaalheid",344,6.87419849545329,"baseheid",3.36,0,6.0913098820777,10,0.526588927497426,0,"correct",6.29894924685594
"762","pp8","riantheid",68,6.81783057145415,"heid",2.36,0,4.53259949315326,9,0,0,"correct",6.64248680136726
"763","pp8","beuheid",73,6.7719355558396,"heid",1.73,0,5.06890420222023,7,0,0,"correct",7.0975488506148
"764","pp8","aftandsheid",88,7.13568734702814,"baseheid",2.05,0,4.20469261939097,11,0,0,"correct",6.99942246750796
"765","pp8","tactvolheid",103,7.16549347506085,"heid",2.55,0,4.75359019110636,11,1.24844221891489,1,"correct",6.4281052726846
"766","pp8","tembaarheid",105,7.36264527041782,"baseheid",3.73,0,0,11,1.02667222131998,0,"correct",6.7322107064672
"767","pp8","tilbaarheid",131,6.97447891102505,"baseheid",3.18,0,0,11,1.24844221891489,1,"correct",6.61606518513282
"768","pp8","pitloosheid",135,7.16162200293919,"heid",1.86,0,0,11,1.31050613197084,4,"correct",7.0884087786754
"769","pp8","labielheid",163,6.73459165997295,"baseheid",3.23,0,4.38202663467388,10,0.526588927497426,0,"correct",6.50578406012823
"770","pp8","contentheid",164,6.87005341179813,"heid",2.5,0,4.49980967033027,11,0,1,"correct",6.93439720992856
"771","pp8","saprijkheid",178,6.86589107488344,"baseheid",1.95,0,0,11,1.51630236639884,2,"correct",6.76041469108343
"772","pp8","dementheid",180,6.71901315438526,"heid",3.23,0,3.8286413964891,10,0.741275220811803,0,"correct",6.78671695060508
"773","pp8","enormheid",181,6.45047042214418,"baseheid",3,0,8.42463920980563,9,0.526588927497426,0,"correct",6.62406522779989
"774","pp8","royaalheid",192,6.46302945692067,"baseheid",3.36,0,6.0913098820777,10,0.526588927497426,0,"correct",6.86901445066571
"775","pp8","jofelheid",196,6.60258789218934,"baseheid",2.64,0,3.3322045101752,9,0,0,"correct",6.49223983502047
"776","pp8","blusbaarheid",206,6.60394382460047,"heid",2.91,0,0,12,1.19470700912477,0,"correct",6.94601399109923
"777","pp8","basaalheid",214,7.03878354138854,"heid",2.14,0,3.55534806148941,10,0,0,"correct",7.13807303404435
"778","pp8","kalkrijkheid",222,7.09589322109753,"heid",2.09,0,3.13549421592915,12,1.48187723101362,3,"correct",7.29301767977278
"779","pp8","ontroerdheid",243,6.53233429222235,"baseheid",3.32,0,5.54907608489522,12,0,1,"correct",6.5694814204143
"780","pp8","lobbigheid",249,6.94408720822953,"heid",1.82,0,0,10,0.741275220811803,3,"incorrect",6.61338421837956
"781","pp8","banaalheid",250,7.09090982207998,"baseheid",2.64,0,5.73979291217923,10,0.526588927497426,0,"correct",6.64509096950564
"782","pp8","erkendheid",253,6.44413125670044,"heid",4.73,0,6.5191472879404,10,0,0,"correct",6.79234442747081
"783","pp8","coulantheid",256,6.45990445437753,"heid",2.5,0,1.79175946922805,11,0,1,"correct",6.50428817353665
"784","pp8","geurloosheid",261,6.98564181763921,"baseheid",2.95,0,2.56494935746154,12,1.31050613197084,1,"correct",6.75343791859778
"785","pp8","antiekheid",271,6.84694313958538,"heid",2.23,0,6.74523634948436,10,0.869739858620314,2,"correct",6.56807791141198
"786","pp8","ludiekheid",273,7.09672137849476,"heid",2.05,0,4.14313472639153,10,0,0,"correct",6.7990558620588
"787","pp8","ondiepheid",278,7.41697962138115,"heid",2.77,0,5.66296048013595,10,1.57000245622518,1,"correct",6.93828448401696
"788","pp8","pipsheid",285,6.93342302573071,"baseheid",1.86,0,3.3322045101752,8,0,0,"correct",6.61606518513282
"789","pp8","bezweetheid",297,6.54821910276237,"baseheid",3.36,0,4.75359019110636,11,1.37230699238395,1,"correct",6.5132301109123
"790","pp8","koketheid",307,6.80128303447162,"baseheid",2,0,4.78749174278205,9,0.741275220811803,0,"correct",6.93537044601511
"791","pp8","onattentheid",310,6.7428806357919,"baseheid",2.73,0,1.6094379124341,12,0,0,"correct",6.69826805411541
"792","pp8","onwelheid",320,6.57646956904822,"baseheid",2,0,3.97029191355212,9,1.7855468776495,1,"correct",6.36475075685191
"793","pp8","visrijkheid",336,6.58479139238572,"baseheid",2.18,0,3.04452243772342,11,1.72894923152569,4,"correct",6.8596149036542
"794","pp9","koketheid",69,6.38687931936265,"baseheid",2,0,4.78749174278205,9,0.741275220811803,0,"incorrect",6.4707995037826
"795","pp9","bezweetheid",78,6.23244801655052,"baseheid",3.36,0,4.75359019110636,11,1.37230699238395,1,"correct",6.27664348934164
"796","pp9","ondiepheid",88,6.12905021006055,"heid",2.77,0,5.66296048013595,10,1.57000245622518,1,"correct",6.21660610108486
"797","pp9","saprijkheid",89,6.63463335786169,"baseheid",1.95,0,0,11,1.51630236639884,2,"correct",5.78689738136671
"798","pp9","royaalheid",97,6.08677472691231,"baseheid",3.36,0,6.0913098820777,10,0.526588927497426,0,"correct",6.40191719672719
"799","pp9","antiekheid",101,6.53378883793334,"heid",2.23,0,6.74523634948436,10,0.869739858620314,2,"correct",7.13966033596492
"800","pp9","beschutheid",110,6.10702288774225,"baseheid",2.95,0,4.78749174278205,11,0.526588927497426,0,"correct",6.02344759296103
"801","pp9","gammelheid",119,6.57228254269401,"heid",2.55,0,4.91265488573605,10,0,0,"correct",6.44730586254121
"802","pp9","tactvolheid",131,6.16541785423142,"heid",2.55,0,4.75359019110636,11,1.24844221891489,1,"correct",6.29710931993394
"803","pp9","onattentheid",143,6.15909538849193,"baseheid",2.73,0,1.6094379124341,12,0,0,"correct",6.20253551718792
"804","pp9","tembaarheid",144,6.65672652417839,"baseheid",3.73,0,0,11,1.02667222131998,0,"correct",6.35437004079735
"805","pp9","contentheid",146,6.4707995037826,"heid",2.5,0,4.49980967033027,11,0,1,"correct",6.3026189757449
"806","pp9","erkendheid",147,6.19236248947487,"heid",4.73,0,6.5191472879404,10,0,0,"correct",6.18620862390049
"807","pp9","riantheid",165,6.53378883793334,"heid",2.36,0,4.53259949315326,9,0,0,"correct",6.66057514983969
"808","pp9","beuheid",169,6.30078579466324,"heid",1.73,0,5.06890420222023,7,0,0,"correct",6.59167373200866
"809","pp9","dementheid",173,6.3135480462771,"heid",3.23,0,3.8286413964891,10,0.741275220811803,0,"correct",6.13988455222626
"810","pp9","banaalheid",176,6.49072353450251,"baseheid",2.64,0,5.73979291217923,10,0.526588927497426,0,"correct",6.67203294546107
"811","pp9","kortafheid",179,6.10924758276437,"baseheid",2.36,0,5.86929691313377,10,1.62482689233404,1,"correct",6.02586597382531
"812","pp9","blusbaarheid",189,6.30444880242198,"heid",2.91,0,0,12,1.19470700912477,0,"correct",6.46458830368996
"813","pp9","basaalheid",200,6.4723462945009,"heid",2.14,0,3.55534806148941,10,0,0,"correct",6.78558764500793
"814","pp9","ludiekheid",238,6.21260609575152,"heid",2.05,0,4.14313472639153,10,0,0,"correct",6.40687998606931
"815","pp9","ovaalheid",248,6.2363695902037,"heid",2.23,0,5.86078622346587,9,0.526588927497426,1,"correct",6.68461172766793
"816","pp9","visrijkheid",253,6.38519439899773,"baseheid",2.18,0,3.04452243772342,11,1.72894923152569,4,"correct",6.07764224334903
"817","pp9","lobbigheid",260,6.60258789218934,"heid",1.82,0,0,10,0.741275220811803,3,"correct",6.53958595561767
"818","pp9","labielheid",265,6.31173480915291,"baseheid",3.23,0,4.38202663467388,10,0.526588927497426,0,"correct",5.98141421125448
"819","pp9","onbelastheid",266,6.26720054854136,"heid",2.55,0,3.17805383034795,12,1.72894923152569,6,"correct",6.17586727010576
"820","pp9","pitloosheid",272,6.21860011969173,"heid",1.86,0,0,11,1.31050613197084,4,"correct",6.41673228251233
"821","pp9","jofelheid",274,6.289715570909,"baseheid",2.64,0,3.3322045101752,9,0,0,"correct",6.62007320653036
"822","pp9","kalkrijkheid",276,6.23048144757848,"heid",2.09,0,3.13549421592915,12,1.48187723101362,3,"correct",5.99893656194668
"823","pp9","coulantheid",281,6.13772705408623,"heid",2.5,0,1.79175946922805,11,0,1,"correct",6.92067150424868
"824","pp9","ontroerdheid",282,6.1463292576689,"baseheid",3.32,0,5.54907608489522,12,0,1,"correct",6.3261494731551
"825","pp9","bebrildheid",303,6.70196036600254,"heid",1.41,0,3.61091791264422,11,1.35850426878838,3,"correct",7.03702761468628
"826","pp9","markantheid",319,6.09356977004514,"baseheid",2.73,0,5.16478597392351,11,0,0,"correct",6.19440539110467
